"subject","rt","stimulus","button_pressed","trial_type","trial_index","time_elapsed","internal_node_id","responses","key_press","native","AOL","LearnType1","LearnType2","LearnType3","LearnType4","LearnType5","LearnType6","which","AOA","timespent","RESP","word1","word2","sameordiffstims","vowel_word1","vowel_word2","vowelcontrast","Group","tributesto","tributesto2"
"1fss","2946.3000000715","miete1500mitte","NULL","html-keyboard-response",19,1380717,"0.0-8.0-1.3","NULL","80","Spanisch","37",NA,"selflearn",NA,NA,"classesabroad",NA,"die Schule","37","2 Jahre",1,"miete","mitte",1,"i_long","i_short","i_short/i_long","ns","i/I","0"
"1fss","3671.1000000238","mitte1500miete","NULL","html-keyboard-response",35,1427061,"0.0-8.0-1.11","NULL","81","Spanisch","37",NA,"selflearn",NA,NA,"classesabroad",NA,"die Schule","37","2 Jahre",0,"mitte","miete",1,"i_short","i_long","i_short/i_long","ns","i/I","0"
"1fss","1174.3999999762","schief1500schiff","NULL","html-keyboard-response",41,1441815,"0.0-8.0-1.14","NULL","80","Spanisch","37",NA,"selflearn",NA,NA,"classesabroad",NA,"die Schule","37","2 Jahre",1,"schief","schiff",1,"i_long","i_short","i_short/i_long","ns","i/I","0"
"1fss","166","schiff1500schief","NULL","html-keyboard-response",53,1472056,"0.0-8.0-1.20","NULL","80","Spanisch","37",NA,"selflearn",NA,NA,"classesabroad",NA,"die Schule","37","2 Jahre",1,"schiff","schief",1,"i_short","i_long","i_short/i_long","ns","i/I","0"
"1fss","753.29999995232","schief1500schief","NULL","html-keyboard-response",71,1518793,"0.0-8.0-1.29","NULL","81","Spanisch","37",NA,"selflearn",NA,NA,"classesabroad",NA,"die Schule","37","2 Jahre",0,"schief","schief",0,"i_long","i_long","i_long/i_long","ns","E/i","i/I"
"1fss","959.29999995232","schiff1500schiff","NULL","html-keyboard-response",77,1531869,"0.0-8.0-1.32","NULL","81","Spanisch","37",NA,"selflearn",NA,NA,"classesabroad",NA,"die Schule","37","2 Jahre",0,"schiff","schiff",0,"i_short","i_short","i_short/i_short","ns","i/I","E/I"
"1fss","1164.8999999762","stiel1500still","NULL","html-keyboard-response",123,1644736,"0.0-8.0-1.55","NULL","80","Spanisch","37",NA,"selflearn",NA,NA,"classesabroad",NA,"die Schule","37","2 Jahre",1,"stiel","still",1,"i_long","i_short","i_short/i_long","ns","i/I","0"
"1fss","1760.8000000715","still1500still","NULL","html-keyboard-response",125,1650052,"0.0-8.0-1.56","NULL","81","Spanisch","37",NA,"selflearn",NA,NA,"classesabroad",NA,"die Schule","37","2 Jahre",0,"still","still",0,"i_short","i_short","i_short/i_short","ns","i/I","0"
"1fss","779","mitte1500mitte","NULL","html-keyboard-response",129,1659340,"0.0-8.0-1.58","NULL","81","Spanisch","37",NA,"selflearn",NA,NA,"classesabroad",NA,"die Schule","37","2 Jahre",0,"mitte","mitte",0,"i_short","i_short","i_short/i_short","ns","i/I","0"
"1fss","551.39999997616","miete1500miete","NULL","html-keyboard-response",139,1684522,"0.0-8.0-1.63","NULL","81","Spanisch","37",NA,"selflearn",NA,NA,"classesabroad",NA,"die Schule","37","2 Jahre",0,"miete","miete",0,"i_long","i_long","i_long/i_long","ns","i/I","0"
"1fss","1013","still1500stiel","NULL","html-keyboard-response",151,1713563,"0.0-8.0-1.69","NULL","80","Spanisch","37",NA,"selflearn",NA,NA,"classesabroad",NA,"die Schule","37","2 Jahre",1,"still","stiel",1,"i_short","i_long","i_short/i_long","ns","i/I","0"
"1fss","631.69999992847","stiel1500stiel","NULL","html-keyboard-response",153,1717922,"0.0-8.0-1.70","NULL","81","Spanisch","37",NA,"selflearn",NA,NA,"classesabroad",NA,"die Schule","37","2 Jahre",0,"stiel","stiel",0,"i_long","i_long","i_long/i_long","ns","u/i","i/I"
"90gm","1460","schiff1500schiff","NULL","html-keyboard-response",23,331144,"0.0-8.0-1.5","NULL","81","Spanisch","20",NA,NA,NA,"uni","classesabroad","immersion","","20","34 Jahren",0,"schiff","schiff",0,"i_short","i_short","i_short/i_short","ns","i/I","E/I"
"90gm","1022","mitte1500miete","NULL","html-keyboard-response",31,349186,"0.0-8.0-1.9","NULL","80","Spanisch","20",NA,NA,NA,"uni","classesabroad","immersion","","20","34 Jahren",1,"mitte","miete",1,"i_short","i_long","i_short/i_long","ns","i/I","0"
"90gm","270","miete1500mitte","NULL","html-keyboard-response",71,446588,"0.0-8.0-1.29","NULL","80","Spanisch","20",NA,NA,NA,"uni","classesabroad","immersion","","20","34 Jahren",1,"miete","mitte",1,"i_long","i_short","i_short/i_long","ns","i/I","0"
"90gm","1348","still1500stiel","NULL","html-keyboard-response",75,457076,"0.0-8.0-1.31","NULL","80","Spanisch","20",NA,NA,NA,"uni","classesabroad","immersion","","20","34 Jahren",1,"still","stiel",1,"i_short","i_long","i_short/i_long","ns","i/I","0"
"90gm","1826","stiel1500still","NULL","html-keyboard-response",81,470544,"0.0-8.0-1.34","NULL","80","Spanisch","20",NA,NA,NA,"uni","classesabroad","immersion","","20","34 Jahren",1,"stiel","still",1,"i_long","i_short","i_short/i_long","ns","i/I","0"
"90gm","2658","mitte1500mitte","NULL","html-keyboard-response",83,476507,"0.0-8.0-1.35","NULL","81","Spanisch","20",NA,NA,NA,"uni","classesabroad","immersion","","20","34 Jahren",0,"mitte","mitte",0,"i_short","i_short","i_short/i_short","ns","i/I","0"
"90gm","776","schief1500schiff","NULL","html-keyboard-response",101,515722,"0.0-8.0-1.44","NULL","80","Spanisch","20",NA,NA,NA,"uni","classesabroad","immersion","","20","34 Jahren",1,"schief","schiff",1,"i_long","i_short","i_short/i_long","ns","i/I","0"
"90gm","1718","stiel1500stiel","NULL","html-keyboard-response",113,543753,"0.0-8.0-1.50","NULL","81","Spanisch","20",NA,NA,NA,"uni","classesabroad","immersion","","20","34 Jahren",0,"stiel","stiel",0,"i_long","i_long","i_long/i_long","ns","u/i","i/I"
"90gm","1791","still1500still","NULL","html-keyboard-response",123,568202,"0.0-8.0-1.55","NULL","81","Spanisch","20",NA,NA,NA,"uni","classesabroad","immersion","","20","34 Jahren",0,"still","still",0,"i_short","i_short","i_short/i_short","ns","i/I","0"
"90gm","997","miete1500miete","NULL","html-keyboard-response",127,576537,"0.0-8.0-1.57","NULL","81","Spanisch","20",NA,NA,NA,"uni","classesabroad","immersion","","20","34 Jahren",0,"miete","miete",0,"i_long","i_long","i_long/i_long","ns","i/I","0"
"90gm","581","schiff1500schief","NULL","html-keyboard-response",141,606652,"0.0-8.0-1.64","NULL","80","Spanisch","20",NA,NA,NA,"uni","classesabroad","immersion","","20","34 Jahren",1,"schiff","schief",1,"i_short","i_long","i_short/i_long","ns","i/I","0"
"90gm","612","schief1500schief","NULL","html-keyboard-response",143,610912,"0.0-8.0-1.65","NULL","81","Spanisch","20",NA,NA,NA,"uni","classesabroad","immersion","","20","34 Jahren",0,"schief","schief",0,"i_long","i_long","i_long/i_long","ns","E/i","i/I"
"91u3","1798.8999999762","schiff1500schiff","NULL","html-keyboard-response",22,527838,"0.0-8.0-1.5","NULL","81","Spanisch","4 oder 5","classeshome",NA,"lgeschool",NA,NA,NA,"An der Schule","21","3",0,"schiff","schiff",0,"i_short","i_short","i_short/i_short","ns","i/I","E/I"
"91u3","1192.7000000477","stiel1500still","NULL","html-keyboard-response",24,532673,"0.0-8.0-1.6","NULL","80","Spanisch","4 oder 5","classeshome",NA,"lgeschool",NA,NA,NA,"An der Schule","21","3",1,"stiel","still",1,"i_long","i_short","i_short/i_long","ns","i/I","0"
"91u3","1916.6000000238","schiff1500schief","NULL","html-keyboard-response",50,590538,"0.0-8.0-1.19","NULL","80","Spanisch","4 oder 5","classeshome",NA,"lgeschool",NA,NA,NA,"An der Schule","21","3",1,"schiff","schief",1,"i_short","i_long","i_short/i_long","ns","i/I","0"
"91u3","1930","schief1500schief","NULL","html-keyboard-response",62,620333,"0.0-8.0-1.25","NULL","81","Spanisch","4 oder 5","classeshome",NA,"lgeschool",NA,NA,NA,"An der Schule","21","3",0,"schief","schief",0,"i_long","i_long","i_long/i_long","ns","E/i","i/I"
"91u3","715.69999992847","mitte1500mitte","NULL","html-keyboard-response",88,681421,"0.0-8.0-1.38","NULL","81","Spanisch","4 oder 5","classeshome",NA,"lgeschool",NA,NA,NA,"An der Schule","21","3",0,"mitte","mitte",0,"i_short","i_short","i_short/i_short","ns","i/I","0"
"91u3","4247.1999999285","stiel1500stiel","NULL","html-keyboard-response",116,752111,"0.0-8.0-1.52","NULL","81","Spanisch","4 oder 5","classeshome",NA,"lgeschool",NA,NA,NA,"An der Schule","21","3",0,"stiel","stiel",0,"i_long","i_long","i_long/i_long","ns","u/i","i/I"
"91u3","1167","miete1500mitte","NULL","html-keyboard-response",118,756668,"0.0-8.0-1.53","NULL","80","Spanisch","4 oder 5","classeshome",NA,"lgeschool",NA,NA,NA,"An der Schule","21","3",1,"miete","mitte",1,"i_long","i_short","i_short/i_long","ns","i/I","0"
"91u3","916.29999995232","still1500still","NULL","html-keyboard-response",124,770327,"0.0-8.0-1.56","NULL","81","Spanisch","4 oder 5","classeshome",NA,"lgeschool",NA,NA,NA,"An der Schule","21","3",0,"still","still",0,"i_short","i_short","i_short/i_short","ns","i/I","0"
"91u3","4266.5999999046","still1500stiel","NULL","html-keyboard-response",128,782584,"0.0-8.0-1.58","NULL","80","Spanisch","4 oder 5","classeshome",NA,"lgeschool",NA,NA,NA,"An der Schule","21","3",1,"still","stiel",1,"i_short","i_long","i_short/i_long","ns","i/I","0"
"91u3","3485","mitte1500miete","NULL","html-keyboard-response",130,789472,"0.0-8.0-1.59","NULL","80","Spanisch","4 oder 5","classeshome",NA,"lgeschool",NA,NA,NA,"An der Schule","21","3",1,"mitte","miete",1,"i_short","i_long","i_short/i_long","ns","i/I","0"
"91u3","NULL","miete1500miete","NULL","html-keyboard-response",136,809793,"0.0-8.0-1.62","NULL","NULL","Spanisch","4 oder 5","classeshome",NA,"lgeschool",NA,NA,NA,"An der Schule","21","3",0,"miete","miete",0,"i_long","i_long","i_long/i_long","ns","i/I","0"
"91u3","841.89999997616","schief1500schiff","NULL","html-keyboard-response",146,839320,"0.0-8.0-1.67","NULL","80","Spanisch","4 oder 5","classeshome",NA,"lgeschool",NA,NA,NA,"An der Schule","21","3",1,"schief","schiff",1,"i_long","i_short","i_short/i_long","ns","i/I","0"
"e3x7","1026","stiel1500still","NULL","html-keyboard-response",47,362922,"0.0-8.0-1.17","NULL","80","Spanisch","27",NA,"selflearn",NA,NA,NA,"immersion","Lernen durch Immersion","27","8",1,"stiel","still",1,"i_long","i_short","i_short/i_long","ns","i/I","0"
"e3x7","982","still1500still","NULL","html-keyboard-response",61,397386,"0.0-8.0-1.24","NULL","81","Spanisch","27",NA,"selflearn",NA,NA,NA,"immersion","Lernen durch Immersion","27","8",0,"still","still",0,"i_short","i_short","i_short/i_short","ns","i/I","0"
"e3x7","2809","stiel1500stiel","NULL","html-keyboard-response",63,403939,"0.0-8.0-1.25","NULL","80","Spanisch","27",NA,"selflearn",NA,NA,NA,"immersion","Lernen durch Immersion","27","8",1,"stiel","stiel",0,"i_long","i_long","i_long/i_long","ns","u/i","i/I"
"e3x7","769","schief1500schief","NULL","html-keyboard-response",71,421948,"0.0-8.0-1.29","NULL","81","Spanisch","27",NA,"selflearn",NA,NA,NA,"immersion","Lernen durch Immersion","27","8",0,"schief","schief",0,"i_long","i_long","i_long/i_long","ns","E/i","i/I"
"e3x7","1233","mitte1500mitte","NULL","html-keyboard-response",89,461459,"0.0-8.0-1.38","NULL","81","Spanisch","27",NA,"selflearn",NA,NA,NA,"immersion","Lernen durch Immersion","27","8",0,"mitte","mitte",0,"i_short","i_short","i_short/i_short","ns","i/I","0"
"e3x7","873","miete1500mitte","NULL","html-keyboard-response",91,465720,"0.0-8.0-1.39","NULL","80","Spanisch","27",NA,"selflearn",NA,NA,NA,"immersion","Lernen durch Immersion","27","8",1,"miete","mitte",1,"i_long","i_short","i_short/i_long","ns","i/I","0"
"e3x7","1123","mitte1500miete","NULL","html-keyboard-response",97,479693,"0.0-8.0-1.42","NULL","80","Spanisch","27",NA,"selflearn",NA,NA,NA,"immersion","Lernen durch Immersion","27","8",1,"mitte","miete",1,"i_short","i_long","i_short/i_long","ns","i/I","0"
"e3x7","1261","miete1500miete","NULL","html-keyboard-response",109,505886,"0.0-8.0-1.48","NULL","81","Spanisch","27",NA,"selflearn",NA,NA,NA,"immersion","Lernen durch Immersion","27","8",0,"miete","miete",0,"i_long","i_long","i_long/i_long","ns","i/I","0"
"e3x7","1048","still1500stiel","NULL","html-keyboard-response",133,559659,"0.0-8.0-1.60","NULL","80","Spanisch","27",NA,"selflearn",NA,NA,NA,"immersion","Lernen durch Immersion","27","8",1,"still","stiel",1,"i_short","i_long","i_short/i_long","ns","i/I","0"
"e3x7","557","schiff1500schiff","NULL","html-keyboard-response",141,575771,"0.0-8.0-1.64","NULL","81","Spanisch","27",NA,"selflearn",NA,NA,NA,"immersion","Lernen durch Immersion","27","8",0,"schiff","schiff",0,"i_short","i_short","i_short/i_short","ns","i/I","E/I"
"e3x7","1224","schief1500schiff","NULL","html-keyboard-response",147,588978,"0.0-8.0-1.67","NULL","80","Spanisch","27",NA,"selflearn",NA,NA,NA,"immersion","Lernen durch Immersion","27","8",1,"schief","schiff",1,"i_long","i_short","i_short/i_long","ns","i/I","0"
"e3x7","714","schiff1500schief","NULL","html-keyboard-response",151,597617,"0.0-8.0-1.69","NULL","80","Spanisch","27",NA,"selflearn",NA,NA,NA,"immersion","Lernen durch Immersion","27","8",1,"schiff","schief",1,"i_short","i_long","i_short/i_long","ns","i/I","0"
"fnoe","1804","still1500still","NULL","html-keyboard-response",13,180789,"0.0-8.0-1.0","NULL","81","Spanisch, Englisch","24","classeshome","selflearn","lgeschool",NA,"classesabroad",NA,"Deutschkurs in einem deutschsprachigen Land","27","Ich wohne seit 2 Monaten in Deutschland",0,"still","still",0,"i_short","i_short","i_short/i_short","ns","i/I","0"
"fnoe","521.69999999925","schief1500schief","NULL","html-keyboard-response",21,199228,"0.0-8.0-1.4","NULL","81","Spanisch, Englisch","24","classeshome","selflearn","lgeschool",NA,"classesabroad",NA,"Deutschkurs in einem deutschsprachigen Land","27","Ich wohne seit 2 Monaten in Deutschland",0,"schief","schief",0,"i_long","i_long","i_long/i_long","ns","E/i","i/I"
"fnoe","956.40000000224","mitte1500miete","NULL","html-keyboard-response",27,212612,"0.0-8.0-1.7","NULL","80","Spanisch, Englisch","24","classeshome","selflearn","lgeschool",NA,"classesabroad",NA,"Deutschkurs in einem deutschsprachigen Land","27","Ich wohne seit 2 Monaten in Deutschland",1,"mitte","miete",1,"i_short","i_long","i_short/i_long","ns","i/I","0"
"fnoe","768.69999999925","schiff1500schief","NULL","html-keyboard-response",57,277126,"0.0-8.0-1.22","NULL","80","Spanisch, Englisch","24","classeshome","selflearn","lgeschool",NA,"classesabroad",NA,"Deutschkurs in einem deutschsprachigen Land","27","Ich wohne seit 2 Monaten in Deutschland",1,"schiff","schief",1,"i_short","i_long","i_short/i_long","ns","i/I","0"
"fnoe","692.60000000149","schiff1500schiff","NULL","html-keyboard-response",63,289210,"0.0-8.0-1.25","NULL","81","Spanisch, Englisch","24","classeshome","selflearn","lgeschool",NA,"classesabroad",NA,"Deutschkurs in einem deutschsprachigen Land","27","Ich wohne seit 2 Monaten in Deutschland",0,"schiff","schiff",0,"i_short","i_short","i_short/i_short","ns","i/I","E/I"
"fnoe","426.39999999851","miete1500miete","NULL","html-keyboard-response",77,319172,"0.0-8.0-1.32","NULL","81","Spanisch, Englisch","24","classeshome","selflearn","lgeschool",NA,"classesabroad",NA,"Deutschkurs in einem deutschsprachigen Land","27","Ich wohne seit 2 Monaten in Deutschland",0,"miete","miete",0,"i_long","i_long","i_long/i_long","ns","i/I","0"
"fnoe","751.10000000149","schief1500schiff","NULL","html-keyboard-response",87,339523,"0.0-8.0-1.37","NULL","80","Spanisch, Englisch","24","classeshome","selflearn","lgeschool",NA,"classesabroad",NA,"Deutschkurs in einem deutschsprachigen Land","27","Ich wohne seit 2 Monaten in Deutschland",1,"schief","schiff",1,"i_long","i_short","i_short/i_long","ns","i/I","0"
"fnoe","466","stiel1500stiel","NULL","html-keyboard-response",97,359627,"0.0-8.0-1.42","NULL","81","Spanisch, Englisch","24","classeshome","selflearn","lgeschool",NA,"classesabroad",NA,"Deutschkurs in einem deutschsprachigen Land","27","Ich wohne seit 2 Monaten in Deutschland",0,"stiel","stiel",0,"i_long","i_long","i_long/i_long","ns","u/i","i/I"
"fnoe","765.69999999925","still1500stiel","NULL","html-keyboard-response",99,364033,"0.0-8.0-1.43","NULL","80","Spanisch, Englisch","24","classeshome","selflearn","lgeschool",NA,"classesabroad",NA,"Deutschkurs in einem deutschsprachigen Land","27","Ich wohne seit 2 Monaten in Deutschland",1,"still","stiel",1,"i_short","i_long","i_short/i_long","ns","i/I","0"
"fnoe","742.30000000075","mitte1500mitte","NULL","html-keyboard-response",111,389156,"0.0-8.0-1.49","NULL","81","Spanisch, Englisch","24","classeshome","selflearn","lgeschool",NA,"classesabroad",NA,"Deutschkurs in einem deutschsprachigen Land","27","Ich wohne seit 2 Monaten in Deutschland",0,"mitte","mitte",0,"i_short","i_short","i_short/i_short","ns","i/I","0"
"fnoe","804.5","miete1500mitte","NULL","html-keyboard-response",133,435734,"0.0-8.0-1.60","NULL","80","Spanisch, Englisch","24","classeshome","selflearn","lgeschool",NA,"classesabroad",NA,"Deutschkurs in einem deutschsprachigen Land","27","Ich wohne seit 2 Monaten in Deutschland",1,"miete","mitte",1,"i_long","i_short","i_short/i_long","ns","i/I","0"
"fnoe","767.20000000298","stiel1500still","NULL","html-keyboard-response",151,471861,"0.0-8.0-1.69","NULL","80","Spanisch, Englisch","24","classeshome","selflearn","lgeschool",NA,"classesabroad",NA,"Deutschkurs in einem deutschsprachigen Land","27","Ich wohne seit 2 Monaten in Deutschland",1,"stiel","still",1,"i_long","i_short","i_short/i_long","ns","i/I","0"
"hjmf","621","mitte1500mitte","NULL","html-keyboard-response",30,5914860,"0.0-8.0-1.9","NULL","81","Spanisch","31","classeshome",NA,NA,NA,"classesabroad","immersion","Deutschkurs in Deutschland","32","5",0,"mitte","mitte",0,"i_short","i_short","i_short/i_short","ns","i/I","0"
"hjmf","920","still1500still","NULL","html-keyboard-response",32,5919349,"0.0-8.0-1.10","NULL","81","Spanisch","31","classeshome",NA,NA,NA,"classesabroad","immersion","Deutschkurs in Deutschland","32","5",0,"still","still",0,"i_short","i_short","i_short/i_short","ns","i/I","0"
"hjmf","482","schiff1500schiff","NULL","html-keyboard-response",60,5981221,"0.0-8.0-1.24","NULL","81","Spanisch","31","classeshome",NA,NA,NA,"classesabroad","immersion","Deutschkurs in Deutschland","32","5",0,"schiff","schiff",0,"i_short","i_short","i_short/i_short","ns","i/I","E/I"
"hjmf","332","miete1500miete","NULL","html-keyboard-response",80,6021523,"0.0-8.0-1.34","NULL","81","Spanisch","31","classeshome",NA,NA,NA,"classesabroad","immersion","Deutschkurs in Deutschland","32","5",0,"miete","miete",0,"i_long","i_long","i_long/i_long","ns","i/I","0"
"hjmf","684","schiff1500schief","NULL","html-keyboard-response",104,6071124,"0.0-8.0-1.46","NULL","80","Spanisch","31","classeshome",NA,NA,NA,"classesabroad","immersion","Deutschkurs in Deutschland","32","5",1,"schiff","schief",1,"i_short","i_long","i_short/i_long","ns","i/I","0"
"hjmf","509","stiel1500still","NULL","html-keyboard-response",106,6075278,"0.0-8.0-1.47","NULL","80","Spanisch","31","classeshome",NA,NA,NA,"classesabroad","immersion","Deutschkurs in Deutschland","32","5",1,"stiel","still",1,"i_long","i_short","i_short/i_long","ns","i/I","0"
"hjmf","453","mitte1500miete","NULL","html-keyboard-response",112,6086832,"0.0-8.0-1.50","NULL","80","Spanisch","31","classeshome",NA,NA,NA,"classesabroad","immersion","Deutschkurs in Deutschland","32","5",1,"mitte","miete",1,"i_short","i_long","i_short/i_long","ns","i/I","0"
"hjmf","1069","stiel1500stiel","NULL","html-keyboard-response",118,6099428,"0.0-8.0-1.53","NULL","81","Spanisch","31","classeshome",NA,NA,NA,"classesabroad","immersion","Deutschkurs in Deutschland","32","5",0,"stiel","stiel",0,"i_long","i_long","i_long/i_long","ns","u/i","i/I"
"hjmf","528","schief1500schief","NULL","html-keyboard-response",122,6107046,"0.0-8.0-1.55","NULL","81","Spanisch","31","classeshome",NA,NA,NA,"classesabroad","immersion","Deutschkurs in Deutschland","32","5",0,"schief","schief",0,"i_long","i_long","i_long/i_long","ns","E/i","i/I"
"hjmf","529","miete1500mitte","NULL","html-keyboard-response",138,6140048,"0.0-8.0-1.63","NULL","80","Spanisch","31","classeshome",NA,NA,NA,"classesabroad","immersion","Deutschkurs in Deutschland","32","5",1,"miete","mitte",1,"i_long","i_short","i_short/i_long","ns","i/I","0"
"hjmf","483","schief1500schiff","NULL","html-keyboard-response",148,6160073,"0.0-8.0-1.68","NULL","80","Spanisch","31","classeshome",NA,NA,NA,"classesabroad","immersion","Deutschkurs in Deutschland","32","5",1,"schief","schiff",1,"i_long","i_short","i_short/i_long","ns","i/I","0"
"hjmf","149","still1500stiel","NULL","html-keyboard-response",150,6163888,"0.0-8.0-1.69","NULL","80","Spanisch","31","classeshome",NA,NA,NA,"classesabroad","immersion","Deutschkurs in Deutschland","32","5",1,"still","stiel",1,"i_short","i_long","i_short/i_long","ns","i/I","0"
"hr37","597.79999995232","miete1500mitte","NULL","html-keyboard-response",20,585448,"0.0-8.0-1.4","NULL","80","Spanisch","22","classeshome","selflearn",NA,"uni","classesabroad",NA,"Deutschkurse am Lektorat der Universität","24","Ich wohne in DE seit 13 Jahre",1,"miete","mitte",1,"i_long","i_short","i_short/i_long","ns","i/I","0"
"hr37","957.20000004768","mitte1500miete","NULL","html-keyboard-response",22,589784,"0.0-8.0-1.5","NULL","80","Spanisch","22","classeshome","selflearn",NA,"uni","classesabroad",NA,"Deutschkurse am Lektorat der Universität","24","Ich wohne in DE seit 13 Jahre",1,"mitte","miete",1,"i_short","i_long","i_short/i_long","ns","i/I","0"
"hr37","2400.7000000477","still1500still","NULL","html-keyboard-response",28,604770,"0.0-8.0-1.8","NULL","81","Spanisch","22","classeshome","selflearn",NA,"uni","classesabroad",NA,"Deutschkurse am Lektorat der Universität","24","Ich wohne in DE seit 13 Jahre",0,"still","still",0,"i_short","i_short","i_short/i_short","ns","i/I","0"
"hr37","189","schiff1500schief","NULL","html-keyboard-response",46,645892,"0.0-8.0-1.17","NULL","80","Spanisch","22","classeshome","selflearn",NA,"uni","classesabroad",NA,"Deutschkurse am Lektorat der Universität","24","Ich wohne in DE seit 13 Jahre",1,"schiff","schief",1,"i_short","i_long","i_short/i_long","ns","i/I","0"
"hr37","418","stiel1500still","NULL","html-keyboard-response",58,670118,"0.0-8.0-1.23","NULL","80","Spanisch","22","classeshome","selflearn",NA,"uni","classesabroad",NA,"Deutschkurse am Lektorat der Universität","24","Ich wohne in DE seit 13 Jahre",1,"stiel","still",1,"i_long","i_short","i_short/i_long","ns","i/I","0"
"hr37","359","stiel1500stiel","NULL","html-keyboard-response",60,674198,"0.0-8.0-1.24","NULL","81","Spanisch","22","classeshome","selflearn",NA,"uni","classesabroad",NA,"Deutschkurse am Lektorat der Universität","24","Ich wohne in DE seit 13 Jahre",0,"stiel","stiel",0,"i_long","i_long","i_long/i_long","ns","u/i","i/I"
"hr37","393.70000004768","schiff1500schiff","NULL","html-keyboard-response",64,681529,"0.0-8.0-1.26","NULL","81","Spanisch","22","classeshome","selflearn",NA,"uni","classesabroad",NA,"Deutschkurse am Lektorat der Universität","24","Ich wohne in DE seit 13 Jahre",0,"schiff","schiff",0,"i_short","i_short","i_short/i_short","ns","i/I","E/I"
"hr37","262","schief1500schiff","NULL","html-keyboard-response",90,732173,"0.0-8.0-1.39","NULL","80","Spanisch","22","classeshome","selflearn",NA,"uni","classesabroad",NA,"Deutschkurse am Lektorat der Universität","24","Ich wohne in DE seit 13 Jahre",1,"schief","schiff",1,"i_long","i_short","i_short/i_long","ns","i/I","0"
"hr37","702.5","mitte1500mitte","NULL","html-keyboard-response",92,736149,"0.0-8.0-1.40","NULL","81","Spanisch","22","classeshome","selflearn",NA,"uni","classesabroad",NA,"Deutschkurse am Lektorat der Universität","24","Ich wohne in DE seit 13 Jahre",0,"mitte","mitte",0,"i_short","i_short","i_short/i_short","ns","i/I","0"
"hr37","159.60000014305","still1500stiel","NULL","html-keyboard-response",112,776269,"0.0-8.0-1.50","NULL","80","Spanisch","22","classeshome","selflearn",NA,"uni","classesabroad",NA,"Deutschkurse am Lektorat der Universität","24","Ich wohne in DE seit 13 Jahre",1,"still","stiel",1,"i_short","i_long","i_short/i_long","ns","i/I","0"
"hr37","1147.7999999523","schief1500schief","NULL","html-keyboard-response",134,819528,"0.0-8.0-1.61","NULL","81","Spanisch","22","classeshome","selflearn",NA,"uni","classesabroad",NA,"Deutschkurse am Lektorat der Universität","24","Ich wohne in DE seit 13 Jahre",0,"schief","schief",0,"i_long","i_long","i_long/i_long","ns","E/i","i/I"
"hr37","308.89999985695","miete1500miete","NULL","html-keyboard-response",136,823322,"0.0-8.0-1.62","NULL","81","Spanisch","22","classeshome","selflearn",NA,"uni","classesabroad",NA,"Deutschkurse am Lektorat der Universität","24","Ich wohne in DE seit 13 Jahre",0,"miete","miete",0,"i_long","i_long","i_long/i_long","ns","i/I","0"
"jw5c","828","stiel1500stiel","NULL","html-keyboard-response",13,215024,"0.0-8.0-1.0","NULL","81","Katalanisch, Spanisch ","21","classeshome","selflearn",NA,NA,"classesabroad","immersion","Deutschkurs, Filmen, Bücher","28","6 Jahre",0,"stiel","stiel",0,"i_long","i_long","i_long/i_long","ns","u/i","i/I"
"jw5c","833","mitte1500mitte","NULL","html-keyboard-response",19,227905,"0.0-8.0-1.3","NULL","81","Katalanisch, Spanisch ","21","classeshome","selflearn",NA,NA,"classesabroad","immersion","Deutschkurs, Filmen, Bücher","28","6 Jahre",0,"mitte","mitte",0,"i_short","i_short","i_short/i_short","ns","i/I","0"
"jw5c","1185","stiel1500still","NULL","html-keyboard-response",25,241306,"0.0-8.0-1.6","NULL","80","Katalanisch, Spanisch ","21","classeshome","selflearn",NA,NA,"classesabroad","immersion","Deutschkurs, Filmen, Bücher","28","6 Jahre",1,"stiel","still",1,"i_long","i_short","i_short/i_long","ns","i/I","0"
"jw5c","773","still1500stiel","NULL","html-keyboard-response",27,245737,"0.0-8.0-1.7","NULL","80","Katalanisch, Spanisch ","21","classeshome","selflearn",NA,NA,"classesabroad","immersion","Deutschkurs, Filmen, Bücher","28","6 Jahre",1,"still","stiel",1,"i_short","i_long","i_short/i_long","ns","i/I","0"
"jw5c","526","schief1500schief","NULL","html-keyboard-response",29,249890,"0.0-8.0-1.8","NULL","81","Katalanisch, Spanisch ","21","classeshome","selflearn",NA,NA,"classesabroad","immersion","Deutschkurs, Filmen, Bücher","28","6 Jahre",0,"schief","schief",0,"i_long","i_long","i_long/i_long","ns","E/i","i/I"
"jw5c","440","miete1500miete","NULL","html-keyboard-response",77,348560,"0.0-8.0-1.32","NULL","81","Katalanisch, Spanisch ","21","classeshome","selflearn",NA,NA,"classesabroad","immersion","Deutschkurs, Filmen, Bücher","28","6 Jahre",0,"miete","miete",0,"i_long","i_long","i_long/i_long","ns","i/I","0"
"jw5c","1006","schief1500schiff","NULL","html-keyboard-response",85,365694,"0.0-8.0-1.36","NULL","80","Katalanisch, Spanisch ","21","classeshome","selflearn",NA,NA,"classesabroad","immersion","Deutschkurs, Filmen, Bücher","28","6 Jahre",1,"schief","schiff",1,"i_long","i_short","i_short/i_long","ns","i/I","0"
"jw5c","829","still1500still","NULL","html-keyboard-response",89,374155,"0.0-8.0-1.38","NULL","81","Katalanisch, Spanisch ","21","classeshome","selflearn",NA,NA,"classesabroad","immersion","Deutschkurs, Filmen, Bücher","28","6 Jahre",0,"still","still",0,"i_short","i_short","i_short/i_short","ns","i/I","0"
"jw5c","431","mitte1500miete","NULL","html-keyboard-response",97,390175,"0.0-8.0-1.42","NULL","80","Katalanisch, Spanisch ","21","classeshome","selflearn",NA,NA,"classesabroad","immersion","Deutschkurs, Filmen, Bücher","28","6 Jahre",1,"mitte","miete",1,"i_short","i_long","i_short/i_long","ns","i/I","0"
"jw5c","635","miete1500mitte","NULL","html-keyboard-response",105,407760,"0.0-8.0-1.46","NULL","80","Katalanisch, Spanisch ","21","classeshome","selflearn",NA,NA,"classesabroad","immersion","Deutschkurs, Filmen, Bücher","28","6 Jahre",1,"miete","mitte",1,"i_long","i_short","i_short/i_long","ns","i/I","0"
"jw5c","389","schiff1500schiff","NULL","html-keyboard-response",129,457185,"0.0-8.0-1.58","NULL","81","Katalanisch, Spanisch ","21","classeshome","selflearn",NA,NA,"classesabroad","immersion","Deutschkurs, Filmen, Bücher","28","6 Jahre",0,"schiff","schiff",0,"i_short","i_short","i_short/i_short","ns","i/I","E/I"
"jw5c","1182","schiff1500schief","NULL","html-keyboard-response",133,465743,"0.0-8.0-1.60","NULL","80","Katalanisch, Spanisch ","21","classeshome","selflearn",NA,NA,"classesabroad","immersion","Deutschkurs, Filmen, Bücher","28","6 Jahre",1,"schiff","schief",1,"i_short","i_long","i_short/i_long","ns","i/I","0"
"klvq","777.99999999994","mitte1500mitte","NULL","html-keyboard-response",16,346364,"0.0-8.0-1.2","NULL","81","Spanisch","22","on",NA,NA,NA,NA,NA,"Immersion und Deutschkurs","24","8 Jahre",0,"mitte","mitte",0,"i_short","i_short","i_short/i_short","ns","i/I","0"
"klvq","985","schief1500schiff","NULL","html-keyboard-response",48,421684,"0.0-8.0-1.18","NULL","80","Spanisch","22","on",NA,NA,NA,NA,NA,"Immersion und Deutschkurs","24","8 Jahre",1,"schief","schiff",1,"i_long","i_short","i_short/i_long","ns","i/I","0"
"klvq","645","schiff1500schiff","NULL","html-keyboard-response",56,438395,"0.0-8.0-1.22","NULL","81","Spanisch","22","on",NA,NA,NA,NA,NA,"Immersion und Deutschkurs","24","8 Jahre",0,"schiff","schiff",0,"i_short","i_short","i_short/i_short","ns","i/I","E/I"
"klvq","601","stiel1500still","NULL","html-keyboard-response",60,446627,"0.0-8.0-1.24","NULL","80","Spanisch","22","on",NA,NA,NA,NA,NA,"Immersion und Deutschkurs","24","8 Jahre",1,"stiel","still",1,"i_long","i_short","i_short/i_long","ns","i/I","0"
"klvq","657","schiff1500schief","NULL","html-keyboard-response",78,486810,"0.0-8.0-1.33","NULL","80","Spanisch","22","on",NA,NA,NA,NA,NA,"Immersion und Deutschkurs","24","8 Jahre",1,"schiff","schief",1,"i_short","i_long","i_short/i_long","ns","i/I","0"
"klvq","623.99999999994","still1500still","NULL","html-keyboard-response",92,515176,"0.0-8.0-1.40","NULL","81","Spanisch","22","on",NA,NA,NA,NA,NA,"Immersion und Deutschkurs","24","8 Jahre",0,"still","still",0,"i_short","i_short","i_short/i_short","ns","i/I","0"
"klvq","787","stiel1500stiel","NULL","html-keyboard-response",100,532929,"0.0-8.0-1.44","NULL","81","Spanisch","22","on",NA,NA,NA,NA,NA,"Immersion und Deutschkurs","24","8 Jahre",0,"stiel","stiel",0,"i_long","i_long","i_long/i_long","ns","u/i","i/I"
"klvq","2245","mitte1500miete","NULL","html-keyboard-response",126,589770,"0.0-8.0-1.57","NULL","80","Spanisch","22","on",NA,NA,NA,NA,NA,"Immersion und Deutschkurs","24","8 Jahre",1,"mitte","miete",1,"i_short","i_long","i_short/i_long","ns","i/I","0"
"klvq","520","miete1500miete","NULL","html-keyboard-response",138,617011,"0.0-8.0-1.63","NULL","81","Spanisch","22","on",NA,NA,NA,NA,NA,"Immersion und Deutschkurs","24","8 Jahre",0,"miete","miete",0,"i_long","i_long","i_long/i_long","ns","i/I","0"
"klvq","1550.0000000001","miete1500mitte","NULL","html-keyboard-response",140,621954,"0.0-8.0-1.64","NULL","80","Spanisch","22","on",NA,NA,NA,NA,NA,"Immersion und Deutschkurs","24","8 Jahre",1,"miete","mitte",1,"i_long","i_short","i_short/i_long","ns","i/I","0"
"klvq","474","still1500stiel","NULL","html-keyboard-response",146,636131,"0.0-8.0-1.67","NULL","80","Spanisch","22","on",NA,NA,NA,NA,NA,"Immersion und Deutschkurs","24","8 Jahre",1,"still","stiel",1,"i_short","i_long","i_short/i_long","ns","i/I","0"
"klvq","371","schief1500schief","NULL","html-keyboard-response",148,640128,"0.0-8.0-1.68","NULL","81","Spanisch","22","on",NA,NA,NA,NA,NA,"Immersion und Deutschkurs","24","8 Jahre",0,"schief","schief",0,"i_long","i_long","i_long/i_long","ns","E/i","i/I"
"mmy8","1250","stiel1500still","NULL","html-keyboard-response",12,63313,"0.0-8.0-1.0","NULL","80","Spanisch","9",NA,NA,NA,NA,NA,"immersion","","9","3,5 Jahre",1,"stiel","still",1,"i_long","i_short","i_short/i_long","ns","i/I","0"
"mmy8","640","mitte1500miete","NULL","html-keyboard-response",18,75552,"0.0-8.0-1.3","NULL","80","Spanisch","9",NA,NA,NA,NA,NA,"immersion","","9","3,5 Jahre",1,"mitte","miete",1,"i_short","i_long","i_short/i_long","ns","i/I","0"
"mmy8","287","still1500still","NULL","html-keyboard-response",34,110538,"0.0-8.0-1.11","NULL","81","Spanisch","9",NA,NA,NA,NA,NA,"immersion","","9","3,5 Jahre",0,"still","still",0,"i_short","i_short","i_short/i_short","ns","i/I","0"
"mmy8","480","stiel1500stiel","NULL","html-keyboard-response",48,137132,"0.0-8.0-1.18","NULL","81","Spanisch","9",NA,NA,NA,NA,NA,"immersion","","9","3,5 Jahre",0,"stiel","stiel",0,"i_long","i_long","i_long/i_long","ns","u/i","i/I"
"mmy8","509","miete1500mitte","NULL","html-keyboard-response",56,152949,"0.0-8.0-1.22","NULL","80","Spanisch","9",NA,NA,NA,NA,NA,"immersion","","9","3,5 Jahre",1,"miete","mitte",1,"i_long","i_short","i_short/i_long","ns","i/I","0"
"mmy8","453.99999999994","mitte1500mitte","NULL","html-keyboard-response",108,253699,"0.0-8.0-1.48","NULL","81","Spanisch","9",NA,NA,NA,NA,NA,"immersion","","9","3,5 Jahre",0,"mitte","mitte",0,"i_short","i_short","i_short/i_short","ns","i/I","0"
"mmy8","138","schiff1500schief","NULL","html-keyboard-response",110,257300,"0.0-8.0-1.49","NULL","80","Spanisch","9",NA,NA,NA,NA,NA,"immersion","","9","3,5 Jahre",1,"schiff","schief",1,"i_short","i_long","i_short/i_long","ns","i/I","0"
"mmy8","474","still1500stiel","NULL","html-keyboard-response",116,269381,"0.0-8.0-1.52","NULL","80","Spanisch","9",NA,NA,NA,NA,NA,"immersion","","9","3,5 Jahre",1,"still","stiel",1,"i_short","i_long","i_short/i_long","ns","i/I","0"
"mmy8","454","schiff1500schiff","NULL","html-keyboard-response",120,277211,"0.0-8.0-1.54","NULL","81","Spanisch","9",NA,NA,NA,NA,NA,"immersion","","9","3,5 Jahre",0,"schiff","schiff",0,"i_short","i_short","i_short/i_short","ns","i/I","E/I"
"mmy8","342","schief1500schief","NULL","html-keyboard-response",130,296830,"0.0-8.0-1.59","NULL","81","Spanisch","9",NA,NA,NA,NA,NA,"immersion","","9","3,5 Jahre",0,"schief","schief",0,"i_long","i_long","i_long/i_long","ns","E/i","i/I"
"mmy8","475","schief1500schiff","NULL","html-keyboard-response",142,321220,"0.0-8.0-1.65","NULL","80","Spanisch","9",NA,NA,NA,NA,NA,"immersion","","9","3,5 Jahre",1,"schief","schiff",1,"i_long","i_short","i_short/i_long","ns","i/I","0"
"mmy8","291","miete1500miete","NULL","html-keyboard-response",152,340839,"0.0-8.0-1.70","NULL","81","Spanisch","9",NA,NA,NA,NA,NA,"immersion","","9","3,5 Jahre",0,"miete","miete",0,"i_long","i_long","i_long/i_long","ns","i/I","0"
"n6v7","519.19999999553","still1500stiel","NULL","html-keyboard-response",24,387040,"0.0-8.0-1.5","NULL","80","Spanisch","30 Jahre alt",NA,"selflearn",NA,NA,"classesabroad",NA,"ein Deutschkurs besuchen","30","fast 9 Jahre",1,"still","stiel",1,"i_short","i_long","i_short/i_long","ns","i/I","0"
"n6v7","696.40000000596","schief1500schiff","NULL","html-keyboard-response",28,395229,"0.0-8.0-1.7","NULL","80","Spanisch","30 Jahre alt",NA,"selflearn",NA,NA,"classesabroad",NA,"ein Deutschkurs besuchen","30","fast 9 Jahre",1,"schief","schiff",1,"i_long","i_short","i_short/i_long","ns","i/I","0"
"n6v7","1221.5","schiff1500schiff","NULL","html-keyboard-response",38,415980,"0.0-8.0-1.12","NULL","80","Spanisch","30 Jahre alt",NA,"selflearn",NA,NA,"classesabroad",NA,"ein Deutschkurs besuchen","30","fast 9 Jahre",1,"schiff","schiff",0,"i_short","i_short","i_short/i_short","ns","i/I","E/I"
"n6v7","551.10000000149","schiff1500schief","NULL","html-keyboard-response",50,439941,"0.0-8.0-1.18","NULL","80","Spanisch","30 Jahre alt",NA,"selflearn",NA,NA,"classesabroad",NA,"ein Deutschkurs besuchen","30","fast 9 Jahre",1,"schiff","schief",1,"i_short","i_long","i_short/i_long","ns","i/I","0"
"n6v7","294.39999999851","mitte1500miete","NULL","html-keyboard-response",60,459777,"0.0-8.0-1.23","NULL","80","Spanisch","30 Jahre alt",NA,"selflearn",NA,NA,"classesabroad",NA,"ein Deutschkurs besuchen","30","fast 9 Jahre",1,"mitte","miete",1,"i_short","i_long","i_short/i_long","ns","i/I","0"
"n6v7","499.5","mitte1500mitte","NULL","html-keyboard-response",78,497849,"0.0-8.0-1.32","NULL","81","Spanisch","30 Jahre alt",NA,"selflearn",NA,NA,"classesabroad",NA,"ein Deutschkurs besuchen","30","fast 9 Jahre",0,"mitte","mitte",0,"i_short","i_short","i_short/i_short","ns","i/I","0"
"n6v7","387.60000000149","miete1500miete","NULL","html-keyboard-response",88,518656,"0.0-8.0-1.37","NULL","81","Spanisch","30 Jahre alt",NA,"selflearn",NA,NA,"classesabroad",NA,"ein Deutschkurs besuchen","30","fast 9 Jahre",0,"miete","miete",0,"i_long","i_long","i_long/i_long","ns","i/I","0"
"n6v7","692.10000000149","stiel1500stiel","NULL","html-keyboard-response",90,523085,"0.0-8.0-1.38","NULL","81","Spanisch","30 Jahre alt",NA,"selflearn",NA,NA,"classesabroad",NA,"ein Deutschkurs besuchen","30","fast 9 Jahre",0,"stiel","stiel",0,"i_long","i_long","i_long/i_long","ns","u/i","i/I"
"n6v7","345.60000000149","miete1500mitte","NULL","html-keyboard-response",122,589489,"0.0-8.0-1.54","NULL","80","Spanisch","30 Jahre alt",NA,"selflearn",NA,NA,"classesabroad",NA,"ein Deutschkurs besuchen","30","fast 9 Jahre",1,"miete","mitte",1,"i_long","i_short","i_short/i_long","ns","i/I","0"
"n6v7","658.19999999553","schief1500schief","NULL","html-keyboard-response",132,609623,"0.0-8.0-1.59","NULL","81","Spanisch","30 Jahre alt",NA,"selflearn",NA,NA,"classesabroad",NA,"ein Deutschkurs besuchen","30","fast 9 Jahre",0,"schief","schief",0,"i_long","i_long","i_long/i_long","ns","E/i","i/I"
"n6v7","708.60000000149","still1500still","NULL","html-keyboard-response",142,629897,"0.0-8.0-1.64","NULL","81","Spanisch","30 Jahre alt",NA,"selflearn",NA,NA,"classesabroad",NA,"ein Deutschkurs besuchen","30","fast 9 Jahre",0,"still","still",0,"i_short","i_short","i_short/i_short","ns","i/I","0"
"n6v7","274","stiel1500still","NULL","html-keyboard-response",150,646223,"0.0-8.0-1.68","NULL","80","Spanisch","30 Jahre alt",NA,"selflearn",NA,NA,"classesabroad",NA,"ein Deutschkurs besuchen","30","fast 9 Jahre",1,"stiel","still",1,"i_long","i_short","i_short/i_long","ns","i/I","0"
"o2oe","554","schief1500schiff","NULL","html-keyboard-response",17,314475,"0.0-8.0-1.2","NULL","80","Spanisch","25","classeshome",NA,NA,NA,"classesabroad",NA,"Ich habe einen Deutschkurs in einem deutschsprachigen Land besucht","25","26",1,"schief","schiff",1,"i_long","i_short","i_short/i_long","ns","i/I","0"
"o2oe","308","schiff1500schief","NULL","html-keyboard-response",29,337843,"0.0-8.0-1.8","NULL","80","Spanisch","25","classeshome",NA,NA,NA,"classesabroad",NA,"Ich habe einen Deutschkurs in einem deutschsprachigen Land besucht","25","26",1,"schiff","schief",1,"i_short","i_long","i_short/i_long","ns","i/I","0"
"o2oe","292","mitte1500mitte","NULL","html-keyboard-response",31,341411,"0.0-8.0-1.9","NULL","81","Spanisch","25","classeshome",NA,NA,NA,"classesabroad",NA,"Ich habe einen Deutschkurs in einem deutschsprachigen Land besucht","25","26",0,"mitte","mitte",0,"i_short","i_short","i_short/i_short","ns","i/I","0"
"o2oe","30","schief1500schief","NULL","html-keyboard-response",55,385827,"0.0-8.0-1.21","NULL","81","Spanisch","25","classeshome",NA,NA,NA,"classesabroad",NA,"Ich habe einen Deutschkurs in einem deutschsprachigen Land besucht","25","26",0,"schief","schief",0,"i_long","i_long","i_long/i_long","ns","E/i","i/I"
"o2oe","537","schiff1500schiff","NULL","html-keyboard-response",71,417475,"0.0-8.0-1.29","NULL","81","Spanisch","25","classeshome",NA,NA,NA,"classesabroad",NA,"Ich habe einen Deutschkurs in einem deutschsprachigen Land besucht","25","26",0,"schiff","schiff",0,"i_short","i_short","i_short/i_short","ns","i/I","E/I"
"o2oe","132","stiel1500stiel","NULL","html-keyboard-response",103,481652,"0.0-8.0-1.45","NULL","81","Spanisch","25","classeshome",NA,NA,NA,"classesabroad",NA,"Ich habe einen Deutschkurs in einem deutschsprachigen Land besucht","25","26",0,"stiel","stiel",0,"i_long","i_long","i_long/i_long","ns","u/i","i/I"
"o2oe","274","miete1500miete","NULL","html-keyboard-response",111,497652,"0.0-8.0-1.49","NULL","81","Spanisch","25","classeshome",NA,NA,NA,"classesabroad",NA,"Ich habe einen Deutschkurs in einem deutschsprachigen Land besucht","25","26",0,"miete","miete",0,"i_long","i_long","i_long/i_long","ns","i/I","0"
"o2oe","392","still1500stiel","NULL","html-keyboard-response",125,525715,"0.0-8.0-1.56","NULL","80","Spanisch","25","classeshome",NA,NA,NA,"classesabroad",NA,"Ich habe einen Deutschkurs in einem deutschsprachigen Land besucht","25","26",1,"still","stiel",1,"i_short","i_long","i_short/i_long","ns","i/I","0"
"o2oe","534","still1500still","NULL","html-keyboard-response",131,537012,"0.0-8.0-1.59","NULL","81","Spanisch","25","classeshome",NA,NA,NA,"classesabroad",NA,"Ich habe einen Deutschkurs in einem deutschsprachigen Land besucht","25","26",0,"still","still",0,"i_short","i_short","i_short/i_short","ns","i/I","0"
"o2oe","585","miete1500mitte","NULL","html-keyboard-response",137,548493,"0.0-8.0-1.62","NULL","80","Spanisch","25","classeshome",NA,NA,NA,"classesabroad",NA,"Ich habe einen Deutschkurs in einem deutschsprachigen Land besucht","25","26",1,"miete","mitte",1,"i_long","i_short","i_short/i_long","ns","i/I","0"
"o2oe","638","mitte1500miete","NULL","html-keyboard-response",145,563405,"0.0-8.0-1.66","NULL","80","Spanisch","25","classeshome",NA,NA,NA,"classesabroad",NA,"Ich habe einen Deutschkurs in einem deutschsprachigen Land besucht","25","26",1,"mitte","miete",1,"i_short","i_long","i_short/i_long","ns","i/I","0"
"o2oe","578","stiel1500still","NULL","html-keyboard-response",153,580365,"0.0-8.0-1.70","NULL","80","Spanisch","25","classeshome",NA,NA,NA,"classesabroad",NA,"Ich habe einen Deutschkurs in einem deutschsprachigen Land besucht","25","26",1,"stiel","still",1,"i_long","i_short","i_short/i_long","ns","i/I","0"
"pfem","1654.3999999911","schief1500schiff","NULL","html-keyboard-response",19,937937,"0.0-8.0-1.2","NULL","80","Spanisch","33","on",NA,NA,NA,NA,NA,"Deutschkurs","34","7 Jahre",1,"schief","schiff",1,"i_long","i_short","i_short/i_long","ns","i/I","0"
"pfem","830","stiel1500still","NULL","html-keyboard-response",31,964792,"0.0-8.0-1.8","NULL","80","Spanisch","33","on",NA,NA,NA,NA,NA,"Deutschkurs","34","7 Jahre",1,"stiel","still",1,"i_long","i_short","i_short/i_long","ns","i/I","0"
"pfem","1797","mitte1500miete","NULL","html-keyboard-response",39,984600,"0.0-8.0-1.12","NULL","80","Spanisch","33","on",NA,NA,NA,NA,NA,"Deutschkurs","34","7 Jahre",1,"mitte","miete",1,"i_short","i_long","i_short/i_long","ns","i/I","0"
"pfem","480","schiff1500schiff","NULL","html-keyboard-response",49,1005302,"0.0-8.0-1.17","NULL","81","Spanisch","33","on",NA,NA,NA,NA,NA,"Deutschkurs","34","7 Jahre",0,"schiff","schiff",0,"i_short","i_short","i_short/i_short","ns","i/I","E/I"
"pfem","386.70000000298","still1500stiel","NULL","html-keyboard-response",61,1031149,"0.0-8.0-1.23","NULL","80","Spanisch","33","on",NA,NA,NA,NA,NA,"Deutschkurs","34","7 Jahre",1,"still","stiel",1,"i_short","i_long","i_short/i_long","ns","i/I","0"
"pfem","481.39999999106","schiff1500schief","NULL","html-keyboard-response",65,1039024,"0.0-8.0-1.25","NULL","80","Spanisch","33","on",NA,NA,NA,NA,NA,"Deutschkurs","34","7 Jahre",1,"schiff","schief",1,"i_short","i_long","i_short/i_long","ns","i/I","0"
"pfem","1241.599999994","mitte1500mitte","NULL","html-keyboard-response",67,1043554,"0.0-8.0-1.26","NULL","80","Spanisch","33","on",NA,NA,NA,NA,NA,"Deutschkurs","34","7 Jahre",1,"mitte","mitte",0,"i_short","i_short","i_short/i_short","ns","i/I","0"
"pfem","1328.900000006","miete1500mitte","NULL","html-keyboard-response",117,1153162,"0.0-8.0-1.51","NULL","80","Spanisch","33","on",NA,NA,NA,NA,NA,"Deutschkurs","34","7 Jahre",1,"miete","mitte",1,"i_long","i_short","i_short/i_long","ns","i/I","0"
"pfem","834.59999999404","stiel1500stiel","NULL","html-keyboard-response",119,1157727,"0.0-8.0-1.52","NULL","81","Spanisch","33","on",NA,NA,NA,NA,NA,"Deutschkurs","34","7 Jahre",0,"stiel","stiel",0,"i_long","i_long","i_long/i_long","ns","u/i","i/I"
"pfem","736.29999999702","still1500still","NULL","html-keyboard-response",139,1201659,"0.0-8.0-1.62","NULL","81","Spanisch","33","on",NA,NA,NA,NA,NA,"Deutschkurs","34","7 Jahre",0,"still","still",0,"i_short","i_short","i_short/i_short","ns","i/I","0"
"pfem","224.29999999702","schief1500schief","NULL","html-keyboard-response",143,1209257,"0.0-8.0-1.64","NULL","81","Spanisch","33","on",NA,NA,NA,NA,NA,"Deutschkurs","34","7 Jahre",0,"schief","schief",0,"i_long","i_long","i_long/i_long","ns","E/i","i/I"
"pfem","364.79999999702","miete1500miete","NULL","html-keyboard-response",147,1216507,"0.0-8.0-1.66","NULL","81","Spanisch","33","on",NA,NA,NA,NA,NA,"Deutschkurs","34","7 Jahre",0,"miete","miete",0,"i_long","i_long","i_long/i_long","ns","i/I","0"
"psn7","758.90000009537","schief1500schief","NULL","html-keyboard-response",15,386170,"0.0-8.0-1.1","NULL","81","Spanisch","22 J",NA,"selflearn",NA,NA,"classesabroad","immersion","Selbstlernen","22 J","5 J",0,"schief","schief",0,"i_long","i_long","i_long/i_long","ns","E/i","i/I"
"psn7","1966.2999999523","still1500still","NULL","html-keyboard-response",23,404797,"0.0-8.0-1.5","NULL","80","Spanisch","22 J",NA,"selflearn",NA,NA,"classesabroad","immersion","Selbstlernen","22 J","5 J",1,"still","still",0,"i_short","i_short","i_short/i_short","ns","i/I","0"
"psn7","1146.2999999523","still1500stiel","NULL","html-keyboard-response",47,454386,"0.0-8.0-1.17","NULL","80","Spanisch","22 J",NA,"selflearn",NA,NA,"classesabroad","immersion","Selbstlernen","22 J","5 J",1,"still","stiel",1,"i_short","i_long","i_short/i_long","ns","i/I","0"
"psn7","674.90000009537","stiel1500still","NULL","html-keyboard-response",57,474515,"0.0-8.0-1.22","NULL","80","Spanisch","22 J",NA,"selflearn",NA,NA,"classesabroad","immersion","Selbstlernen","22 J","5 J",1,"stiel","still",1,"i_long","i_short","i_short/i_long","ns","i/I","0"
"psn7","427","miete1500miete","NULL","html-keyboard-response",71,502647,"0.0-8.0-1.29","NULL","81","Spanisch","22 J",NA,"selflearn",NA,NA,"classesabroad","immersion","Selbstlernen","22 J","5 J",0,"miete","miete",0,"i_long","i_long","i_long/i_long","ns","i/I","0"
"psn7","328.79999995232","schiff1500schief","NULL","html-keyboard-response",89,537649,"0.0-8.0-1.38","NULL","80","Spanisch","22 J",NA,"selflearn",NA,NA,"classesabroad","immersion","Selbstlernen","22 J","5 J",1,"schiff","schief",1,"i_short","i_long","i_short/i_long","ns","i/I","0"
"psn7","431.70000004768","stiel1500stiel","NULL","html-keyboard-response",99,558761,"0.0-8.0-1.43","NULL","81","Spanisch","22 J",NA,"selflearn",NA,NA,"classesabroad","immersion","Selbstlernen","22 J","5 J",0,"stiel","stiel",0,"i_long","i_long","i_long/i_long","ns","u/i","i/I"
"psn7","2417.5","mitte1500miete","NULL","html-keyboard-response",109,581588,"0.0-8.0-1.48","NULL","80","Spanisch","22 J",NA,"selflearn",NA,NA,"classesabroad","immersion","Selbstlernen","22 J","5 J",1,"mitte","miete",1,"i_short","i_long","i_short/i_long","ns","i/I","0"
"psn7","563.10000014305","schief1500schiff","NULL","html-keyboard-response",123,610803,"0.0-8.0-1.55","NULL","80","Spanisch","22 J",NA,"selflearn",NA,NA,"classesabroad","immersion","Selbstlernen","22 J","5 J",1,"schief","schiff",1,"i_long","i_short","i_short/i_long","ns","i/I","0"
"psn7","371","schiff1500schiff","NULL","html-keyboard-response",133,632691,"0.0-8.0-1.60","NULL","81","Spanisch","22 J",NA,"selflearn",NA,NA,"classesabroad","immersion","Selbstlernen","22 J","5 J",0,"schiff","schiff",0,"i_short","i_short","i_short/i_short","ns","i/I","E/I"
"psn7","574","mitte1500mitte","NULL","html-keyboard-response",135,636554,"0.0-8.0-1.61","NULL","81","Spanisch","22 J",NA,"selflearn",NA,NA,"classesabroad","immersion","Selbstlernen","22 J","5 J",0,"mitte","mitte",0,"i_short","i_short","i_short/i_short","ns","i/I","0"
"psn7","1298.9000000954","miete1500mitte","NULL","html-keyboard-response",151,672149,"0.0-8.0-1.69","NULL","80","Spanisch","22 J",NA,"selflearn",NA,NA,"classesabroad","immersion","Selbstlernen","22 J","5 J",1,"miete","mitte",1,"i_long","i_short","i_short/i_long","ns","i/I","0"
"qlxa","701.59999999404","miete1500mitte","NULL","html-keyboard-response",46,449819,"0.0-8.0-1.17","NULL","80","Spanisch","31","classeshome",NA,NA,NA,"classesabroad","immersion","Deutschkurs in Deutschland","31","fast fünf Jahre",1,"miete","mitte",1,"i_long","i_short","i_short/i_long","ns","i/I","0"
"qlxa","721.40000000596","schief1500schief","NULL","html-keyboard-response",50,458535,"0.0-8.0-1.19","NULL","81","Spanisch","31","classeshome",NA,NA,NA,"classesabroad","immersion","Deutschkurs in Deutschland","31","fast fünf Jahre",0,"schief","schief",0,"i_long","i_long","i_long/i_long","ns","E/i","i/I"
"qlxa","475.70000000298","miete1500miete","NULL","html-keyboard-response",54,466655,"0.0-8.0-1.21","NULL","81","Spanisch","31","classeshome",NA,NA,NA,"classesabroad","immersion","Deutschkurs in Deutschland","31","fast fünf Jahre",0,"miete","miete",0,"i_long","i_long","i_long/i_long","ns","i/I","0"
"qlxa","427.40000000596","stiel1500stiel","NULL","html-keyboard-response",56,470804,"0.0-8.0-1.22","NULL","81","Spanisch","31","classeshome",NA,NA,NA,"classesabroad","immersion","Deutschkurs in Deutschland","31","fast fünf Jahre",0,"stiel","stiel",0,"i_long","i_long","i_long/i_long","ns","u/i","i/I"
"qlxa","225.69999998808","schiff1500schief","NULL","html-keyboard-response",62,482131,"0.0-8.0-1.25","NULL","80","Spanisch","31","classeshome",NA,NA,NA,"classesabroad","immersion","Deutschkurs in Deutschland","31","fast fünf Jahre",1,"schiff","schief",1,"i_short","i_long","i_short/i_long","ns","i/I","0"
"qlxa","838.20000000298","mitte1500miete","NULL","html-keyboard-response",64,486355,"0.0-8.0-1.26","NULL","80","Spanisch","31","classeshome",NA,NA,NA,"classesabroad","immersion","Deutschkurs in Deutschland","31","fast fünf Jahre",1,"mitte","miete",1,"i_short","i_long","i_short/i_long","ns","i/I","0"
"qlxa","365.79999999702","mitte1500mitte","NULL","html-keyboard-response",78,515808,"0.0-8.0-1.33","NULL","81","Spanisch","31","classeshome",NA,NA,NA,"classesabroad","immersion","Deutschkurs in Deutschland","31","fast fünf Jahre",0,"mitte","mitte",0,"i_short","i_short","i_short/i_short","ns","i/I","0"
"qlxa","610.20000000298","schiff1500schiff","NULL","html-keyboard-response",90,539430,"0.0-8.0-1.39","NULL","81","Spanisch","31","classeshome",NA,NA,NA,"classesabroad","immersion","Deutschkurs in Deutschland","31","fast fünf Jahre",0,"schiff","schiff",0,"i_short","i_short","i_short/i_short","ns","i/I","E/I"
"qlxa","789.09999999404","still1500still","NULL","html-keyboard-response",104,568281,"0.0-8.0-1.46","NULL","81","Spanisch","31","classeshome",NA,NA,NA,"classesabroad","immersion","Deutschkurs in Deutschland","31","fast fünf Jahre",0,"still","still",0,"i_short","i_short","i_short/i_short","ns","i/I","0"
"qlxa","397.20000000298","schief1500schiff","NULL","html-keyboard-response",112,584062,"0.0-8.0-1.50","NULL","80","Spanisch","31","classeshome",NA,NA,NA,"classesabroad","immersion","Deutschkurs in Deutschland","31","fast fünf Jahre",1,"schief","schiff",1,"i_long","i_short","i_short/i_long","ns","i/I","0"
"qlxa","469.29999999702","stiel1500still","NULL","html-keyboard-response",130,621444,"0.0-8.0-1.59","NULL","80","Spanisch","31","classeshome",NA,NA,NA,"classesabroad","immersion","Deutschkurs in Deutschland","31","fast fünf Jahre",1,"stiel","still",1,"i_long","i_short","i_short/i_long","ns","i/I","0"
"qlxa","408.20000000298","still1500stiel","NULL","html-keyboard-response",154,668544,"0.0-8.0-1.71","NULL","80","Spanisch","31","classeshome",NA,NA,NA,"classesabroad","immersion","Deutschkurs in Deutschland","31","fast fünf Jahre",1,"still","stiel",1,"i_short","i_long","i_short/i_long","ns","i/I","0"
"rxrx","627","mitte1500mitte","NULL","html-keyboard-response",13,299647,"0.0-8.0-1.0","NULL","81","Spanisch","24","classeshome",NA,NA,NA,"classesabroad",NA,"Deutschkurs in einem deutschsprachigen Land besucht","26","1 Jahr",0,"mitte","mitte",0,"i_short","i_short","i_short/i_short","ns","i/I","0"
"rxrx","862","stiel1500stiel","NULL","html-keyboard-response",15,304242,"0.0-8.0-1.1","NULL","80","Spanisch","24","classeshome",NA,NA,NA,"classesabroad",NA,"Deutschkurs in einem deutschsprachigen Land besucht","26","1 Jahr",1,"stiel","stiel",0,"i_long","i_long","i_long/i_long","ns","u/i","i/I"
"rxrx","290","schief1500schief","NULL","html-keyboard-response",19,312529,"0.0-8.0-1.3","NULL","81","Spanisch","24","classeshome",NA,NA,NA,"classesabroad",NA,"Deutschkurs in einem deutschsprachigen Land besucht","26","1 Jahr",0,"schief","schief",0,"i_long","i_long","i_long/i_long","ns","E/i","i/I"
"rxrx","305","schief1500schiff","NULL","html-keyboard-response",33,339664,"0.0-8.0-1.10","NULL","80","Spanisch","24","classeshome",NA,NA,NA,"classesabroad",NA,"Deutschkurs in einem deutschsprachigen Land besucht","26","1 Jahr",1,"schief","schiff",1,"i_long","i_short","i_short/i_long","ns","i/I","0"
"rxrx","416","miete1500miete","NULL","html-keyboard-response",37,347695,"0.0-8.0-1.12","NULL","81","Spanisch","24","classeshome",NA,NA,NA,"classesabroad",NA,"Deutschkurs in einem deutschsprachigen Land besucht","26","1 Jahr",0,"miete","miete",0,"i_long","i_long","i_long/i_long","ns","i/I","0"
"rxrx","291","mitte1500miete","NULL","html-keyboard-response",57,386260,"0.0-8.0-1.22","NULL","80","Spanisch","24","classeshome",NA,NA,NA,"classesabroad",NA,"Deutschkurs in einem deutschsprachigen Land besucht","26","1 Jahr",1,"mitte","miete",1,"i_short","i_long","i_short/i_long","ns","i/I","0"
"rxrx","447","schiff1500schief","NULL","html-keyboard-response",63,400607,"0.0-8.0-1.25","NULL","80","Spanisch","24","classeshome",NA,NA,NA,"classesabroad",NA,"Deutschkurs in einem deutschsprachigen Land besucht","26","1 Jahr",1,"schiff","schief",1,"i_short","i_long","i_short/i_long","ns","i/I","0"
"rxrx","209","still1500still","NULL","html-keyboard-response",77,428809,"0.0-8.0-1.32","NULL","81","Spanisch","24","classeshome",NA,NA,NA,"classesabroad",NA,"Deutschkurs in einem deutschsprachigen Land besucht","26","1 Jahr",0,"still","still",0,"i_short","i_short","i_short/i_short","ns","i/I","0"
"rxrx","456","miete1500mitte","NULL","html-keyboard-response",107,485425,"0.0-8.0-1.47","NULL","80","Spanisch","24","classeshome",NA,NA,NA,"classesabroad",NA,"Deutschkurs in einem deutschsprachigen Land besucht","26","1 Jahr",1,"miete","mitte",1,"i_long","i_short","i_short/i_long","ns","i/I","0"
"rxrx","460","stiel1500still","NULL","html-keyboard-response",119,510139,"0.0-8.0-1.53","NULL","80","Spanisch","24","classeshome",NA,NA,NA,"classesabroad",NA,"Deutschkurs in einem deutschsprachigen Land besucht","26","1 Jahr",1,"stiel","still",1,"i_long","i_short","i_short/i_long","ns","i/I","0"
"rxrx","241","still1500stiel","NULL","html-keyboard-response",131,533171,"0.0-8.0-1.59","NULL","81","Spanisch","24","classeshome",NA,NA,NA,"classesabroad",NA,"Deutschkurs in einem deutschsprachigen Land besucht","26","1 Jahr",0,"still","stiel",1,"i_short","i_long","i_short/i_long","ns","i/I","0"
"rxrx","391","schiff1500schiff","NULL","html-keyboard-response",145,560591,"0.0-8.0-1.66","NULL","81","Spanisch","24","classeshome",NA,NA,NA,"classesabroad",NA,"Deutschkurs in einem deutschsprachigen Land besucht","26","1 Jahr",0,"schiff","schiff",0,"i_short","i_short","i_short/i_short","ns","i/I","E/I"
"thm4","820.90000009537","schief1500schief","NULL","html-keyboard-response",17,234298,"0.0-8.0-1.2","NULL","81","Spanisch","32",NA,NA,NA,NA,"classesabroad",NA,"","31","6.5 Jahre",0,"schief","schief",0,"i_long","i_long","i_long/i_long","ns","E/i","i/I"
"thm4","1065.5","schiff1500schief","NULL","html-keyboard-response",21,243655,"0.0-8.0-1.4","NULL","80","Spanisch","32",NA,NA,NA,NA,"classesabroad",NA,"","31","6.5 Jahre",1,"schiff","schief",1,"i_short","i_long","i_short/i_long","ns","i/I","0"
"thm4","1167.5999999046","schief1500schiff","NULL","html-keyboard-response",41,285945,"0.0-8.0-1.14","NULL","80","Spanisch","32",NA,NA,NA,NA,"classesabroad",NA,"","31","6.5 Jahre",1,"schief","schiff",1,"i_long","i_short","i_short/i_long","ns","i/I","0"
"thm4","504.79999995232","stiel1500still","NULL","html-keyboard-response",77,359938,"0.0-8.0-1.32","NULL","80","Spanisch","32",NA,NA,NA,NA,"classesabroad",NA,"","31","6.5 Jahre",1,"stiel","still",1,"i_long","i_short","i_short/i_long","ns","i/I","0"
"thm4","527.5","still1500still","NULL","html-keyboard-response",87,381696,"0.0-8.0-1.37","NULL","81","Spanisch","32",NA,NA,NA,NA,"classesabroad",NA,"","31","6.5 Jahre",0,"still","still",0,"i_short","i_short","i_short/i_short","ns","i/I","0"
"thm4","408.20000004768","schiff1500schiff","NULL","html-keyboard-response",99,405844,"0.0-8.0-1.43","NULL","81","Spanisch","32",NA,NA,NA,NA,"classesabroad",NA,"","31","6.5 Jahre",0,"schiff","schiff",0,"i_short","i_short","i_short/i_short","ns","i/I","E/I"
"thm4","418","miete1500miete","NULL","html-keyboard-response",103,413666,"0.0-8.0-1.45","NULL","81","Spanisch","32",NA,NA,NA,NA,"classesabroad",NA,"","31","6.5 Jahre",0,"miete","miete",0,"i_long","i_long","i_long/i_long","ns","i/I","0"
"thm4","569.20000004768","mitte1500mitte","NULL","html-keyboard-response",105,417510,"0.0-8.0-1.46","NULL","81","Spanisch","32",NA,NA,NA,NA,"classesabroad",NA,"","31","6.5 Jahre",0,"mitte","mitte",0,"i_short","i_short","i_short/i_short","ns","i/I","0"
"thm4","480.40000009537","still1500stiel","NULL","html-keyboard-response",113,433045,"0.0-8.0-1.50","NULL","80","Spanisch","32",NA,NA,NA,NA,"classesabroad",NA,"","31","6.5 Jahre",1,"still","stiel",1,"i_short","i_long","i_short/i_long","ns","i/I","0"
"thm4","501.19999980927","miete1500mitte","NULL","html-keyboard-response",123,453607,"0.0-8.0-1.55","NULL","80","Spanisch","32",NA,NA,NA,NA,"classesabroad",NA,"","31","6.5 Jahre",1,"miete","mitte",1,"i_long","i_short","i_short/i_long","ns","i/I","0"
"thm4","434.79999995232","mitte1500miete","NULL","html-keyboard-response",125,457426,"0.0-8.0-1.56","NULL","80","Spanisch","32",NA,NA,NA,NA,"classesabroad",NA,"","31","6.5 Jahre",1,"mitte","miete",1,"i_short","i_long","i_short/i_long","ns","i/I","0"
"thm4","534.79999995232","stiel1500stiel","NULL","html-keyboard-response",135,477264,"0.0-8.0-1.61","NULL","81","Spanisch","32",NA,NA,NA,NA,"classesabroad",NA,"","31","6.5 Jahre",0,"stiel","stiel",0,"i_long","i_long","i_long/i_long","ns","u/i","i/I"
"x2ft","1556","schief1500schief","NULL","html-keyboard-response",17,409497,"0.0-8.0-1.2","NULL","81","Spanisch","29",NA,NA,NA,NA,"classesabroad",NA,"Deutschkurs und Immersion","29","35 Jahren ",0,"schief","schief",0,"i_long","i_long","i_long/i_long","ns","E/i","i/I"
"x2ft","1326","mitte1500miete","NULL","html-keyboard-response",27,435626,"0.0-8.0-1.7","NULL","80","Spanisch","29",NA,NA,NA,NA,"classesabroad",NA,"Deutschkurs und Immersion","29","35 Jahren ",1,"mitte","miete",1,"i_short","i_long","i_short/i_long","ns","i/I","0"
"x2ft","943","still1500stiel","NULL","html-keyboard-response",39,462405,"0.0-8.0-1.13","NULL","80","Spanisch","29",NA,NA,NA,NA,"classesabroad",NA,"Deutschkurs und Immersion","29","35 Jahren ",1,"still","stiel",1,"i_short","i_long","i_short/i_long","ns","i/I","0"
"x2ft","810","stiel1500still","NULL","html-keyboard-response",43,471143,"0.0-8.0-1.15","NULL","80","Spanisch","29",NA,NA,NA,NA,"classesabroad",NA,"Deutschkurs und Immersion","29","35 Jahren ",1,"stiel","still",1,"i_long","i_short","i_short/i_long","ns","i/I","0"
"x2ft","1497","mitte1500mitte","NULL","html-keyboard-response",45,475916,"0.0-8.0-1.16","NULL","81","Spanisch","29",NA,NA,NA,NA,"classesabroad",NA,"Deutschkurs und Immersion","29","35 Jahren ",0,"mitte","mitte",0,"i_short","i_short","i_short/i_short","ns","i/I","0"
"x2ft","1240","still1500still","NULL","html-keyboard-response",47,480706,"0.0-8.0-1.17","NULL","81","Spanisch","29",NA,NA,NA,NA,"classesabroad",NA,"Deutschkurs und Immersion","29","35 Jahren ",0,"still","still",0,"i_short","i_short","i_short/i_short","ns","i/I","0"
"x2ft","1343","miete1500miete","NULL","html-keyboard-response",67,526296,"0.0-8.0-1.27","NULL","81","Spanisch","29",NA,NA,NA,NA,"classesabroad",NA,"Deutschkurs und Immersion","29","35 Jahren ",0,"miete","miete",0,"i_long","i_long","i_long/i_long","ns","i/I","0"
"x2ft","NULL","schiff1500schiff","NULL","html-keyboard-response",79,577917,"0.0-8.0-1.33","NULL","NULL","Spanisch","29",NA,NA,NA,NA,"classesabroad",NA,"Deutschkurs und Immersion","29","35 Jahren ",0,"schiff","schiff",0,"i_short","i_short","i_short/i_short","ns","i/I","E/I"
"x2ft","927","miete1500mitte","NULL","html-keyboard-response",101,638556,"0.0-8.0-1.44","NULL","80","Spanisch","29",NA,NA,NA,NA,"classesabroad",NA,"Deutschkurs und Immersion","29","35 Jahren ",1,"miete","mitte",1,"i_long","i_short","i_short/i_long","ns","i/I","0"
"x2ft","636","schiff1500schief","NULL","html-keyboard-response",105,647155,"0.0-8.0-1.46","NULL","80","Spanisch","29",NA,NA,NA,NA,"classesabroad",NA,"Deutschkurs und Immersion","29","35 Jahren ",1,"schiff","schief",1,"i_short","i_long","i_short/i_long","ns","i/I","0"
"x2ft","1034","stiel1500stiel","NULL","html-keyboard-response",121,684045,"0.0-8.0-1.54","NULL","81","Spanisch","29",NA,NA,NA,NA,"classesabroad",NA,"Deutschkurs und Immersion","29","35 Jahren ",0,"stiel","stiel",0,"i_long","i_long","i_long/i_long","ns","u/i","i/I"
"x2ft","747","schief1500schiff","NULL","html-keyboard-response",139,724946,"0.0-8.0-1.63","NULL","80","Spanisch","29",NA,NA,NA,NA,"classesabroad",NA,"Deutschkurs und Immersion","29","35 Jahren ",1,"schief","schiff",1,"i_long","i_short","i_short/i_long","ns","i/I","0"
"yuzx","1422.2","schief1500schiff","NULL","html-keyboard-response",20,595357,"0.0-8.0-1.3","NULL","80","Spanisch","5","classeshome",NA,"lgeschool",NA,NA,NA,"Es fehlt die Option die deutsche Schule besucht, das ist eigentlich meine wirkliche Option.","","",1,"schief","schiff",1,"i_long","i_short","i_short/i_long","ns","i/I","0"
"yuzx","718.80000000005","mitte1500mitte","NULL","html-keyboard-response",34,624851,"0.0-8.0-1.10","NULL","81","Spanisch","5","classeshome",NA,"lgeschool",NA,NA,NA,"Es fehlt die Option die deutsche Schule besucht, das ist eigentlich meine wirkliche Option.","","",0,"mitte","mitte",0,"i_short","i_short","i_short/i_short","ns","i/I","0"
"yuzx","493.10000000009","schiff1500schiff","NULL","html-keyboard-response",46,650588,"0.0-8.0-1.16","NULL","81","Spanisch","5","classeshome",NA,"lgeschool",NA,NA,NA,"Es fehlt die Option die deutsche Schule besucht, das ist eigentlich meine wirkliche Option.","","",0,"schiff","schiff",0,"i_short","i_short","i_short/i_short","ns","i/I","E/I"
"yuzx","944.39999999991","stiel1500still","NULL","html-keyboard-response",54,666783,"0.0-8.0-1.20","NULL","80","Spanisch","5","classeshome",NA,"lgeschool",NA,NA,NA,"Es fehlt die Option die deutsche Schule besucht, das ist eigentlich meine wirkliche Option.","","",1,"stiel","still",1,"i_long","i_short","i_short/i_long","ns","i/I","0"
"yuzx","449.79999999981","stiel1500stiel","NULL","html-keyboard-response",56,670961,"0.0-8.0-1.21","NULL","81","Spanisch","5","classeshome",NA,"lgeschool",NA,NA,NA,"Es fehlt die Option die deutsche Schule besucht, das ist eigentlich meine wirkliche Option.","","",0,"stiel","stiel",0,"i_long","i_long","i_long/i_long","ns","u/i","i/I"
"yuzx","396.5","schief1500schief","NULL","html-keyboard-response",82,726673,"0.0-8.0-1.34","NULL","81","Spanisch","5","classeshome",NA,"lgeschool",NA,NA,NA,"Es fehlt die Option die deutsche Schule besucht, das ist eigentlich meine wirkliche Option.","","",0,"schief","schief",0,"i_long","i_long","i_long/i_long","ns","E/i","i/I"
"yuzx","657","miete1500mitte","NULL","html-keyboard-response",92,746529,"0.0-8.0-1.39","NULL","80","Spanisch","5","classeshome",NA,"lgeschool",NA,NA,NA,"Es fehlt die Option die deutsche Schule besucht, das ist eigentlich meine wirkliche Option.","","",1,"miete","mitte",1,"i_long","i_short","i_short/i_long","ns","i/I","0"
"yuzx","447.5","miete1500miete","NULL","html-keyboard-response",96,754820,"0.0-8.0-1.41","NULL","81","Spanisch","5","classeshome",NA,"lgeschool",NA,NA,NA,"Es fehlt die Option die deutsche Schule besucht, das ist eigentlich meine wirkliche Option.","","",0,"miete","miete",0,"i_long","i_long","i_long/i_long","ns","i/I","0"
"yuzx","692.89999999991","mitte1500miete","NULL","html-keyboard-response",114,792366,"0.0-8.0-1.50","NULL","80","Spanisch","5","classeshome",NA,"lgeschool",NA,NA,NA,"Es fehlt die Option die deutsche Schule besucht, das ist eigentlich meine wirkliche Option.","","",1,"mitte","miete",1,"i_short","i_long","i_short/i_long","ns","i/I","0"
"yuzx","340.30000000005","still1500still","NULL","html-keyboard-response",122,809048,"0.0-8.0-1.54","NULL","81","Spanisch","5","classeshome",NA,"lgeschool",NA,NA,NA,"Es fehlt die Option die deutsche Schule besucht, das ist eigentlich meine wirkliche Option.","","",0,"still","still",0,"i_short","i_short","i_short/i_short","ns","i/I","0"
"yuzx","390","schiff1500schief","NULL","html-keyboard-response",132,828885,"0.0-8.0-1.59","NULL","80","Spanisch","5","classeshome",NA,"lgeschool",NA,NA,NA,"Es fehlt die Option die deutsche Schule besucht, das ist eigentlich meine wirkliche Option.","","",1,"schiff","schief",1,"i_short","i_long","i_short/i_long","ns","i/I","0"
"yuzx","688.09999999986","still1500stiel","NULL","html-keyboard-response",152,870825,"0.0-8.0-1.69","NULL","80","Spanisch","5","classeshome",NA,"lgeschool",NA,NA,NA,"Es fehlt die Option die deutsche Schule besucht, das ist eigentlich meine wirkliche Option.","","",1,"still","stiel",1,"i_short","i_long","i_short/i_long","ns","i/I","0"
"1fss","4589.8999999762","spuelen1500spulen","NULL","html-keyboard-response",27,1405762,"0.0-8.0-1.7","NULL","81","Spanisch","37",NA,"selflearn",NA,NA,"classesabroad",NA,"die Schule","37","2 Jahre",0,"spuelen","spulen",1,"y","u","u/y","ns","u/y","0"
"1fss","3489.2000000477","bluten1500blueten","NULL","html-keyboard-response",43,1448659,"0.0-8.0-1.15","NULL","80","Spanisch","37",NA,"selflearn",NA,NA,"classesabroad",NA,"die Schule","37","2 Jahre",1,"bluten","blueten",1,"u","y","u/y","ns","u/y","0"
"1fss","998.10000002384","blueten1500bluten","NULL","html-keyboard-response",51,1468428,"0.0-8.0-1.19","NULL","80","Spanisch","37",NA,"selflearn",NA,NA,"classesabroad",NA,"die Schule","37","2 Jahre",1,"blueten","bluten",1,"y","u","u/y","ns","u/y","0"
"1fss","1329.5","tuer1500tuer","NULL","html-keyboard-response",63,1498190,"0.0-8.0-1.25","NULL","81","Spanisch","37",NA,"selflearn",NA,NA,"classesabroad",NA,"die Schule","37","2 Jahre",0,"tuer","tuer",0,"y","y","y/y","ns","u/y","0"
"1fss","883.5","spuelen1500spuelen","NULL","html-keyboard-response",75,1527604,"0.0-8.0-1.31","NULL","81","Spanisch","37",NA,"selflearn",NA,NA,"classesabroad",NA,"die Schule","37","2 Jahre",0,"spuelen","spuelen",0,"y","y","y/y","ns","y/i","u/y"
"1fss","2904","spulen1500spuelen","NULL","html-keyboard-response",81,1544524,"0.0-8.0-1.34","NULL","80","Spanisch","37",NA,"selflearn",NA,NA,"classesabroad",NA,"die Schule","37","2 Jahre",1,"spulen","spuelen",1,"u","y","u/y","ns","u/y","0"
"1fss","963","tuer1500tour","NULL","html-keyboard-response",89,1561403,"0.0-8.0-1.38","NULL","80","Spanisch","37",NA,"selflearn",NA,NA,"classesabroad",NA,"die Schule","37","2 Jahre",1,"tuer","tour",1,"y","u","u/y","ns","u/y","0"
"1fss","732.40000009537","tour1500tour","NULL","html-keyboard-response",109,1613973,"0.0-8.0-1.48","NULL","81","Spanisch","37",NA,"selflearn",NA,NA,"classesabroad",NA,"die Schule","37","2 Jahre",0,"tour","tour",0,"u","u","u/u","ns","u/i","u/y"
"1fss","1858.2999999523","bluten1500bluten","NULL","html-keyboard-response",111,1619189,"0.0-8.0-1.49","NULL","81","Spanisch","37",NA,"selflearn",NA,NA,"classesabroad",NA,"die Schule","37","2 Jahre",0,"bluten","bluten",0,"u","u","u/u","ns","u/y","0"
"1fss","278.70000004768","spulen1500spulen","NULL","html-keyboard-response",115,1627329,"0.0-8.0-1.51","NULL","81","Spanisch","37",NA,"selflearn",NA,NA,"classesabroad",NA,"die Schule","37","2 Jahre",0,"spulen","spulen",0,"u","u","u/u","ns","u/i","u/y"
"1fss","384.89999997616","blueten1500blueten","NULL","html-keyboard-response",117,1631065,"0.0-8.0-1.52","NULL","81","Spanisch","37",NA,"selflearn",NA,NA,"classesabroad",NA,"die Schule","37","2 Jahre",0,"blueten","blueten",0,"y","y","y/y","ns","u/y","0"
"1fss","2145.7000000477","tour1500tuer","NULL","html-keyboard-response",145,1699916,"0.0-8.0-1.66","NULL","80","Spanisch","37",NA,"selflearn",NA,NA,"classesabroad",NA,"die Schule","37","2 Jahre",1,"tour","tuer",1,"u","y","u/y","ns","u/y","0"
"90gm","3232","blueten1500bluten","NULL","html-keyboard-response",13,304512,"0.0-8.0-1.0","NULL","80","Spanisch","20",NA,NA,NA,"uni","classesabroad","immersion","","20","34 Jahren",1,"blueten","bluten",1,"y","u","u/y","ns","u/y","0"
"90gm","1298","blueten1500blueten","NULL","html-keyboard-response",27,339984,"0.0-8.0-1.7","NULL","81","Spanisch","20",NA,NA,NA,"uni","classesabroad","immersion","","20","34 Jahren",0,"blueten","blueten",0,"y","y","y/y","ns","u/y","0"
"90gm","4968","tour1500tuer","NULL","html-keyboard-response",43,383270,"0.0-8.0-1.15","NULL","80","Spanisch","20",NA,NA,NA,"uni","classesabroad","immersion","","20","34 Jahren",1,"tour","tuer",1,"u","y","u/y","ns","u/y","0"
"90gm","1389","tour1500tour","NULL","html-keyboard-response",45,387849,"0.0-8.0-1.16","NULL","81","Spanisch","20",NA,NA,NA,"uni","classesabroad","immersion","","20","34 Jahren",0,"tour","tour",0,"u","u","u/u","ns","u/i","u/y"
"90gm","673","tuer1500tuer","NULL","html-keyboard-response",77,460940,"0.0-8.0-1.32","NULL","81","Spanisch","20",NA,NA,NA,"uni","classesabroad","immersion","","20","34 Jahren",0,"tuer","tuer",0,"y","y","y/y","ns","u/y","0"
"90gm","745","bluten1500blueten","NULL","html-keyboard-response",79,465044,"0.0-8.0-1.33","NULL","80","Spanisch","20",NA,NA,NA,"uni","classesabroad","immersion","","20","34 Jahren",1,"bluten","blueten",1,"u","y","u/y","ns","u/y","0"
"90gm","347","bluten1500bluten","NULL","html-keyboard-response",85,480235,"0.0-8.0-1.36","NULL","81","Spanisch","20",NA,NA,NA,"uni","classesabroad","immersion","","20","34 Jahren",0,"bluten","bluten",0,"u","u","u/u","ns","u/y","0"
"90gm","900","spuelen1500spuelen","NULL","html-keyboard-response",87,485087,"0.0-8.0-1.37","NULL","81","Spanisch","20",NA,NA,NA,"uni","classesabroad","immersion","","20","34 Jahren",0,"spuelen","spuelen",0,"y","y","y/y","ns","y/i","u/y"
"90gm","604","spulen1500spuelen","NULL","html-keyboard-response",115,548147,"0.0-8.0-1.51","NULL","80","Spanisch","20",NA,NA,NA,"uni","classesabroad","immersion","","20","34 Jahren",1,"spulen","spuelen",1,"u","y","u/y","ns","u/y","0"
"90gm","759","spulen1500spulen","NULL","html-keyboard-response",129,581303,"0.0-8.0-1.58","NULL","81","Spanisch","20",NA,NA,NA,"uni","classesabroad","immersion","","20","34 Jahren",0,"spulen","spulen",0,"u","u","u/u","ns","u/i","u/y"
"90gm","2437","tuer1500tour","NULL","html-keyboard-response",147,620528,"0.0-8.0-1.67","NULL","80","Spanisch","20",NA,NA,NA,"uni","classesabroad","immersion","","20","34 Jahren",1,"tuer","tour",1,"y","u","u/y","ns","u/y","0"
"90gm","405","spuelen1500spulen","NULL","html-keyboard-response",151,629647,"0.0-8.0-1.69","NULL","80","Spanisch","20",NA,NA,NA,"uni","classesabroad","immersion","","20","34 Jahren",1,"spuelen","spulen",1,"y","u","u/y","ns","u/y","0"
"91u3","761.5","tour1500tuer","NULL","html-keyboard-response",28,540518,"0.0-8.0-1.8","NULL","80","Spanisch","4 oder 5","classeshome",NA,"lgeschool",NA,NA,NA,"An der Schule","21","3",1,"tour","tuer",1,"u","y","u/y","ns","u/y","0"
"91u3","726","spulen1500spuelen","NULL","html-keyboard-response",34,552472,"0.0-8.0-1.11","NULL","80","Spanisch","4 oder 5","classeshome",NA,"lgeschool",NA,NA,NA,"An der Schule","21","3",1,"spulen","spuelen",1,"u","y","u/y","ns","u/y","0"
"91u3","17.699999928474","spuelen1500spuelen","NULL","html-keyboard-response",36,556425,"0.0-8.0-1.12","NULL","81","Spanisch","4 oder 5","classeshome",NA,"lgeschool",NA,NA,NA,"An der Schule","21","3",0,"spuelen","spuelen",0,"y","y","y/y","ns","y/i","u/y"
"91u3","1142.5","blueten1500bluten","NULL","html-keyboard-response",40,565390,"0.0-8.0-1.14","NULL","81","Spanisch","4 oder 5","classeshome",NA,"lgeschool",NA,NA,NA,"An der Schule","21","3",0,"blueten","bluten",1,"y","u","u/y","ns","u/y","0"
"91u3","463.10000002384","bluten1500bluten","NULL","html-keyboard-response",56,606374,"0.0-8.0-1.22","NULL","81","Spanisch","4 oder 5","classeshome",NA,"lgeschool",NA,NA,NA,"An der Schule","21","3",0,"bluten","bluten",0,"u","u","u/u","ns","u/y","0"
"91u3","2253.3000000715","bluten1500blueten","NULL","html-keyboard-response",76,653914,"0.0-8.0-1.32","NULL","81","Spanisch","4 oder 5","classeshome",NA,"lgeschool",NA,NA,NA,"An der Schule","21","3",0,"bluten","blueten",1,"u","y","u/y","ns","u/y","0"
"91u3","2241.3999999762","tuer1500tour","NULL","html-keyboard-response",82,669091,"0.0-8.0-1.35","NULL","80","Spanisch","4 oder 5","classeshome",NA,"lgeschool",NA,NA,NA,"An der Schule","21","3",1,"tuer","tour",1,"y","u","u/y","ns","u/y","0"
"91u3","322.80000007153","spulen1500spulen","NULL","html-keyboard-response",96,699396,"0.0-8.0-1.42","NULL","81","Spanisch","4 oder 5","classeshome",NA,"lgeschool",NA,NA,NA,"An der Schule","21","3",0,"spulen","spulen",0,"u","u","u/u","ns","u/i","u/y"
"91u3","674","blueten1500blueten","NULL","html-keyboard-response",100,708302,"0.0-8.0-1.44","NULL","81","Spanisch","4 oder 5","classeshome",NA,"lgeschool",NA,NA,NA,"An der Schule","21","3",0,"blueten","blueten",0,"y","y","y/y","ns","u/y","0"
"91u3","551.10000002384","spuelen1500spulen","NULL","html-keyboard-response",106,725236,"0.0-8.0-1.47","NULL","80","Spanisch","4 oder 5","classeshome",NA,"lgeschool",NA,NA,NA,"An der Schule","21","3",1,"spuelen","spulen",1,"y","u","u/y","ns","u/y","0"
"91u3","1183.5","tuer1500tuer","NULL","html-keyboard-response",126,774679,"0.0-8.0-1.57","NULL","81","Spanisch","4 oder 5","classeshome",NA,"lgeschool",NA,NA,NA,"An der Schule","21","3",0,"tuer","tuer",0,"y","y","y/y","ns","u/y","0"
"91u3","856.80000007153","tour1500tour","NULL","html-keyboard-response",152,851643,"0.0-8.0-1.70","NULL","81","Spanisch","4 oder 5","classeshome",NA,"lgeschool",NA,NA,NA,"An der Schule","21","3",0,"tour","tour",0,"u","u","u/u","ns","u/i","u/y"
"e3x7","2419","bluten1500blueten","NULL","html-keyboard-response",19,292159,"0.0-8.0-1.3","NULL","80","Spanisch","27",NA,"selflearn",NA,NA,NA,"immersion","Lernen durch Immersion","27","8",1,"bluten","blueten",1,"u","y","u/y","ns","u/y","0"
"e3x7","1343","spuelen1500spulen","NULL","html-keyboard-response",21,297284,"0.0-8.0-1.4","NULL","80","Spanisch","27",NA,"selflearn",NA,NA,NA,"immersion","Lernen durch Immersion","27","8",1,"spuelen","spulen",1,"y","u","u/y","ns","u/y","0"
"e3x7","839","spulen1500spuelen","NULL","html-keyboard-response",43,352439,"0.0-8.0-1.15","NULL","81","Spanisch","27",NA,"selflearn",NA,NA,NA,"immersion","Lernen durch Immersion","27","8",0,"spulen","spuelen",1,"u","y","u/y","ns","u/y","0"
"e3x7","1385","tuer1500tuer","NULL","html-keyboard-response",51,373302,"0.0-8.0-1.19","NULL","81","Spanisch","27",NA,"selflearn",NA,NA,NA,"immersion","Lernen durch Immersion","27","8",0,"tuer","tuer",0,"y","y","y/y","ns","u/y","0"
"e3x7","1137","spuelen1500spuelen","NULL","html-keyboard-response",53,378372,"0.0-8.0-1.20","NULL","81","Spanisch","27",NA,"selflearn",NA,NA,NA,"immersion","Lernen durch Immersion","27","8",0,"spuelen","spuelen",0,"y","y","y/y","ns","y/i","u/y"
"e3x7","320","spulen1500spulen","NULL","html-keyboard-response",65,408242,"0.0-8.0-1.26","NULL","80","Spanisch","27",NA,"selflearn",NA,NA,NA,"immersion","Lernen durch Immersion","27","8",1,"spulen","spulen",0,"u","u","u/u","ns","u/i","u/y"
"e3x7","952","tour1500tuer","NULL","html-keyboard-response",69,417546,"0.0-8.0-1.28","NULL","80","Spanisch","27",NA,"selflearn",NA,NA,NA,"immersion","Lernen durch Immersion","27","8",1,"tour","tuer",1,"u","y","u/y","ns","u/y","0"
"e3x7","1020","blueten1500bluten","NULL","html-keyboard-response",87,456937,"0.0-8.0-1.37","NULL","81","Spanisch","27",NA,"selflearn",NA,NA,NA,"immersion","Lernen durch Immersion","27","8",0,"blueten","bluten",1,"y","u","u/y","ns","u/y","0"
"e3x7","927","blueten1500blueten","NULL","html-keyboard-response",95,475179,"0.0-8.0-1.41","NULL","81","Spanisch","27",NA,"selflearn",NA,NA,NA,"immersion","Lernen durch Immersion","27","8",0,"blueten","blueten",0,"y","y","y/y","ns","u/y","0"
"e3x7","1693","tour1500tour","NULL","html-keyboard-response",111,510764,"0.0-8.0-1.49","NULL","81","Spanisch","27",NA,"selflearn",NA,NA,NA,"immersion","Lernen durch Immersion","27","8",0,"tour","tour",0,"u","u","u/u","ns","u/i","u/y"
"e3x7","529","bluten1500bluten","NULL","html-keyboard-response",135,563551,"0.0-8.0-1.61","NULL","81","Spanisch","27",NA,"selflearn",NA,NA,NA,"immersion","Lernen durch Immersion","27","8",0,"bluten","bluten",0,"u","u","u/u","ns","u/y","0"
"e3x7","848","tuer1500tour","NULL","html-keyboard-response",143,579801,"0.0-8.0-1.65","NULL","80","Spanisch","27",NA,"selflearn",NA,NA,NA,"immersion","Lernen durch Immersion","27","8",1,"tuer","tour",1,"y","u","u/y","ns","u/y","0"
"fnoe","1200.6000000015","spulen1500spuelen","NULL","html-keyboard-response",17,190168,"0.0-8.0-1.2","NULL","80","Spanisch, Englisch","24","classeshome","selflearn","lgeschool",NA,"classesabroad",NA,"Deutschkurs in einem deutschsprachigen Land","27","Ich wohne seit 2 Monaten in Deutschland",1,"spulen","spuelen",1,"u","y","u/y","ns","u/y","0"
"fnoe","737.39999999851","bluten1500bluten","NULL","html-keyboard-response",41,243699,"0.0-8.0-1.14","NULL","81","Spanisch, Englisch","24","classeshome","selflearn","lgeschool",NA,"classesabroad",NA,"Deutschkurs in einem deutschsprachigen Land","27","Ich wohne seit 2 Monaten in Deutschland",0,"bluten","bluten",0,"u","u","u/u","ns","u/y","0"
"fnoe","807","tuer1500tour","NULL","html-keyboard-response",55,272898,"0.0-8.0-1.21","NULL","80","Spanisch, Englisch","24","classeshome","selflearn","lgeschool",NA,"classesabroad",NA,"Deutschkurs in einem deutschsprachigen Land","27","Ich wohne seit 2 Monaten in Deutschland",1,"tuer","tour",1,"y","u","u/y","ns","u/y","0"
"fnoe","796.39999999851","tuer1500tuer","NULL","html-keyboard-response",59,281090,"0.0-8.0-1.23","NULL","81","Spanisch, Englisch","24","classeshome","selflearn","lgeschool",NA,"classesabroad",NA,"Deutschkurs in einem deutschsprachigen Land","27","Ich wohne seit 2 Monaten in Deutschland",0,"tuer","tuer",0,"y","y","y/y","ns","u/y","0"
"fnoe","378.29999999702","spuelen1500spulen","NULL","html-keyboard-response",73,311050,"0.0-8.0-1.30","NULL","80","Spanisch, Englisch","24","classeshome","selflearn","lgeschool",NA,"classesabroad",NA,"Deutschkurs in einem deutschsprachigen Land","27","Ich wohne seit 2 Monaten in Deutschland",1,"spuelen","spulen",1,"y","u","u/y","ns","u/y","0"
"fnoe","785.80000000075","tour1500tuer","NULL","html-keyboard-response",89,343473,"0.0-8.0-1.38","NULL","80","Spanisch, Englisch","24","classeshome","selflearn","lgeschool",NA,"classesabroad",NA,"Deutschkurs in einem deutschsprachigen Land","27","Ich wohne seit 2 Monaten in Deutschland",1,"tour","tuer",1,"u","y","u/y","ns","u/y","0"
"fnoe","831.5","tour1500tour","NULL","html-keyboard-response",95,355432,"0.0-8.0-1.41","NULL","81","Spanisch, Englisch","24","classeshome","selflearn","lgeschool",NA,"classesabroad",NA,"Deutschkurs in einem deutschsprachigen Land","27","Ich wohne seit 2 Monaten in Deutschland",0,"tour","tour",0,"u","u","u/u","ns","u/i","u/y"
"fnoe","814.69999999925","blueten1500bluten","NULL","html-keyboard-response",101,368199,"0.0-8.0-1.44","NULL","81","Spanisch, Englisch","24","classeshome","selflearn","lgeschool",NA,"classesabroad",NA,"Deutschkurs in einem deutschsprachigen Land","27","Ich wohne seit 2 Monaten in Deutschland",0,"blueten","bluten",1,"y","u","u/y","ns","u/y","0"
"fnoe","310.79999999702","spuelen1500spuelen","NULL","html-keyboard-response",103,372442,"0.0-8.0-1.45","NULL","81","Spanisch, Englisch","24","classeshome","selflearn","lgeschool",NA,"classesabroad",NA,"Deutschkurs in einem deutschsprachigen Land","27","Ich wohne seit 2 Monaten in Deutschland",0,"spuelen","spuelen",0,"y","y","y/y","ns","y/i","u/y"
"fnoe","1038.6000000015","blueten1500blueten","NULL","html-keyboard-response",131,431542,"0.0-8.0-1.59","NULL","81","Spanisch, Englisch","24","classeshome","selflearn","lgeschool",NA,"classesabroad",NA,"Deutschkurs in einem deutschsprachigen Land","27","Ich wohne seit 2 Monaten in Deutschland",0,"blueten","blueten",0,"y","y","y/y","ns","u/y","0"
"fnoe","652.80000000075","spulen1500spulen","NULL","html-keyboard-response",137,444537,"0.0-8.0-1.62","NULL","81","Spanisch, Englisch","24","classeshome","selflearn","lgeschool",NA,"classesabroad",NA,"Deutschkurs in einem deutschsprachigen Land","27","Ich wohne seit 2 Monaten in Deutschland",0,"spulen","spulen",0,"u","u","u/u","ns","u/i","u/y"
"fnoe","384.30000000075","bluten1500blueten","NULL","html-keyboard-response",147,463702,"0.0-8.0-1.67","NULL","81","Spanisch, Englisch","24","classeshome","selflearn","lgeschool",NA,"classesabroad",NA,"Deutschkurs in einem deutschsprachigen Land","27","Ich wohne seit 2 Monaten in Deutschland",0,"bluten","blueten",1,"u","y","u/y","ns","u/y","0"
"hjmf","596","spuelen1500spuelen","NULL","html-keyboard-response",50,5959505,"0.0-8.0-1.19","NULL","81","Spanisch","31","classeshome",NA,NA,NA,"classesabroad","immersion","Deutschkurs in Deutschland","32","5",0,"spuelen","spuelen",0,"y","y","y/y","ns","y/i","u/y"
"hjmf","561","tour1500tuer","NULL","html-keyboard-response",58,5977431,"0.0-8.0-1.23","NULL","80","Spanisch","31","classeshome",NA,NA,NA,"classesabroad","immersion","Deutschkurs in Deutschland","32","5",1,"tour","tuer",1,"u","y","u/y","ns","u/y","0"
"hjmf","593","bluten1500blueten","NULL","html-keyboard-response",62,5985171,"0.0-8.0-1.25","NULL","80","Spanisch","31","classeshome",NA,NA,NA,"classesabroad","immersion","Deutschkurs in Deutschland","32","5",1,"bluten","blueten",1,"u","y","u/y","ns","u/y","0"
"hjmf","249","blueten1500blueten","NULL","html-keyboard-response",64,5988789,"0.0-8.0-1.26","NULL","81","Spanisch","31","classeshome",NA,NA,NA,"classesabroad","immersion","Deutschkurs in Deutschland","32","5",0,"blueten","blueten",0,"y","y","y/y","ns","u/y","0"
"hjmf","773","tour1500tour","NULL","html-keyboard-response",70,6000483,"0.0-8.0-1.29","NULL","81","Spanisch","31","classeshome",NA,NA,NA,"classesabroad","immersion","Deutschkurs in Deutschland","32","5",0,"tour","tour",0,"u","u","u/u","ns","u/i","u/y"
"hjmf","34","spulen1500spulen","NULL","html-keyboard-response",82,6025533,"0.0-8.0-1.35","NULL","81","Spanisch","31","classeshome",NA,NA,NA,"classesabroad","immersion","Deutschkurs in Deutschland","32","5",0,"spulen","spulen",0,"u","u","u/u","ns","u/i","u/y"
"hjmf","635","tuer1500tuer","NULL","html-keyboard-response",94,6050155,"0.0-8.0-1.41","NULL","81","Spanisch","31","classeshome",NA,NA,NA,"classesabroad","immersion","Deutschkurs in Deutschland","32","5",0,"tuer","tuer",0,"y","y","y/y","ns","u/y","0"
"hjmf","405","spulen1500spuelen","NULL","html-keyboard-response",96,6054354,"0.0-8.0-1.42","NULL","80","Spanisch","31","classeshome",NA,NA,NA,"classesabroad","immersion","Deutschkurs in Deutschland","32","5",1,"spulen","spuelen",1,"u","y","u/y","ns","u/y","0"
"hjmf","243","spuelen1500spulen","NULL","html-keyboard-response",102,6066973,"0.0-8.0-1.45","NULL","80","Spanisch","31","classeshome",NA,NA,NA,"classesabroad","immersion","Deutschkurs in Deutschland","32","5",1,"spuelen","spulen",1,"y","u","u/y","ns","u/y","0"
"hjmf","557","bluten1500bluten","NULL","html-keyboard-response",108,6079196,"0.0-8.0-1.48","NULL","81","Spanisch","31","classeshome",NA,NA,NA,"classesabroad","immersion","Deutschkurs in Deutschland","32","5",0,"bluten","bluten",0,"u","u","u/u","ns","u/y","0"
"hjmf","449","blueten1500bluten","NULL","html-keyboard-response",114,6090650,"0.0-8.0-1.51","NULL","80","Spanisch","31","classeshome",NA,NA,NA,"classesabroad","immersion","Deutschkurs in Deutschland","32","5",1,"blueten","bluten",1,"y","u","u/y","ns","u/y","0"
"hjmf","701","tuer1500tour","NULL","html-keyboard-response",124,6110921,"0.0-8.0-1.56","NULL","80","Spanisch","31","classeshome",NA,NA,NA,"classesabroad","immersion","Deutschkurs in Deutschland","32","5",1,"tuer","tour",1,"y","u","u/y","ns","u/y","0"
"hr37","484.59999990463","bluten1500bluten","NULL","html-keyboard-response",16,577359,"0.0-8.0-1.2","NULL","81","Spanisch","22","classeshome","selflearn",NA,"uni","classesabroad",NA,"Deutschkurse am Lektorat der Universität","24","Ich wohne in DE seit 13 Jahre",0,"bluten","bluten",0,"u","u","u/u","ns","u/y","0"
"hr37","335.09999990463","spuelen1500spulen","NULL","html-keyboard-response",26,598815,"0.0-8.0-1.7","NULL","80","Spanisch","22","classeshome","selflearn",NA,"uni","classesabroad",NA,"Deutschkurse am Lektorat der Universität","24","Ich wohne in DE seit 13 Jahre",1,"spuelen","spulen",1,"y","u","u/y","ns","u/y","0"
"hr37","1079.0999999046","tour1500tour","NULL","html-keyboard-response",32,613142,"0.0-8.0-1.10","NULL","81","Spanisch","22","classeshome","selflearn",NA,"uni","classesabroad",NA,"Deutschkurse am Lektorat der Universität","24","Ich wohne in DE seit 13 Jahre",0,"tour","tour",0,"u","u","u/u","ns","u/i","u/y"
"hr37","470.5","tuer1500tuer","NULL","html-keyboard-response",62,677833,"0.0-8.0-1.25","NULL","81","Spanisch","22","classeshome","selflearn",NA,"uni","classesabroad",NA,"Deutschkurse am Lektorat der Universität","24","Ich wohne in DE seit 13 Jahre",0,"tuer","tuer",0,"y","y","y/y","ns","u/y","0"
"hr37","203.59999990463","spulen1500spulen","NULL","html-keyboard-response",70,693228,"0.0-8.0-1.29","NULL","81","Spanisch","22","classeshome","selflearn",NA,"uni","classesabroad",NA,"Deutschkurse am Lektorat der Universität","24","Ich wohne in DE seit 13 Jahre",0,"spulen","spulen",0,"u","u","u/u","ns","u/i","u/y"
"hr37","620.79999995232","bluten1500blueten","NULL","html-keyboard-response",72,697197,"0.0-8.0-1.30","NULL","80","Spanisch","22","classeshome","selflearn",NA,"uni","classesabroad",NA,"Deutschkurse am Lektorat der Universität","24","Ich wohne in DE seit 13 Jahre",1,"bluten","blueten",1,"u","y","u/y","ns","u/y","0"
"hr37","731","tuer1500tour","NULL","html-keyboard-response",78,708424,"0.0-8.0-1.33","NULL","80","Spanisch","22","classeshome","selflearn",NA,"uni","classesabroad",NA,"Deutschkurse am Lektorat der Universität","24","Ich wohne in DE seit 13 Jahre",1,"tuer","tour",1,"y","u","u/y","ns","u/y","0"
"hr37","770.39999985695","blueten1500blueten","NULL","html-keyboard-response",82,716433,"0.0-8.0-1.35","NULL","81","Spanisch","22","classeshome","selflearn",NA,"uni","classesabroad",NA,"Deutschkurse am Lektorat der Universität","24","Ich wohne in DE seit 13 Jahre",0,"blueten","blueten",0,"y","y","y/y","ns","u/y","0"
"hr37","745.20000004768","spuelen1500spuelen","NULL","html-keyboard-response",84,721104,"0.0-8.0-1.36","NULL","81","Spanisch","22","classeshome","selflearn",NA,"uni","classesabroad",NA,"Deutschkurse am Lektorat der Universität","24","Ich wohne in DE seit 13 Jahre",0,"spuelen","spuelen",0,"y","y","y/y","ns","y/i","u/y"
"hr37","655.39999985695","tour1500tuer","NULL","html-keyboard-response",108,768916,"0.0-8.0-1.48","NULL","80","Spanisch","22","classeshome","selflearn",NA,"uni","classesabroad",NA,"Deutschkurse am Lektorat der Universität","24","Ich wohne in DE seit 13 Jahre",1,"tour","tuer",1,"u","y","u/y","ns","u/y","0"
"hr37","265.79999995232","blueten1500bluten","NULL","html-keyboard-response",116,783457,"0.0-8.0-1.52","NULL","80","Spanisch","22","classeshome","selflearn",NA,"uni","classesabroad",NA,"Deutschkurse am Lektorat der Universität","24","Ich wohne in DE seit 13 Jahre",1,"blueten","bluten",1,"y","u","u/y","ns","u/y","0"
"hr37","317.90000009537","spulen1500spuelen","NULL","html-keyboard-response",122,795670,"0.0-8.0-1.55","NULL","80","Spanisch","22","classeshome","selflearn",NA,"uni","classesabroad",NA,"Deutschkurse am Lektorat der Universität","24","Ich wohne in DE seit 13 Jahre",1,"spulen","spuelen",1,"u","y","u/y","ns","u/y","0"
"jw5c","1171","bluten1500blueten","NULL","html-keyboard-response",23,236464,"0.0-8.0-1.5","NULL","81","Katalanisch, Spanisch ","21","classeshome","selflearn",NA,NA,"classesabroad","immersion","Deutschkurs, Filmen, Bücher","28","6 Jahre",0,"bluten","blueten",1,"u","y","u/y","ns","u/y","0"
"jw5c","837","tour1500tuer","NULL","html-keyboard-response",31,253904,"0.0-8.0-1.9","NULL","80","Katalanisch, Spanisch ","21","classeshome","selflearn",NA,NA,"classesabroad","immersion","Deutschkurs, Filmen, Bücher","28","6 Jahre",1,"tour","tuer",1,"u","y","u/y","ns","u/y","0"
"jw5c","581","tour1500tour","NULL","html-keyboard-response",45,282349,"0.0-8.0-1.16","NULL","81","Katalanisch, Spanisch ","21","classeshome","selflearn",NA,NA,"classesabroad","immersion","Deutschkurs, Filmen, Bücher","28","6 Jahre",0,"tour","tour",0,"u","u","u/u","ns","u/i","u/y"
"jw5c","522","tuer1500tuer","NULL","html-keyboard-response",65,324226,"0.0-8.0-1.26","NULL","81","Katalanisch, Spanisch ","21","classeshome","selflearn",NA,NA,"classesabroad","immersion","Deutschkurs, Filmen, Bücher","28","6 Jahre",0,"tuer","tuer",0,"y","y","y/y","ns","u/y","0"
"jw5c","745","spulen1500spuelen","NULL","html-keyboard-response",69,332507,"0.0-8.0-1.28","NULL","80","Katalanisch, Spanisch ","21","classeshome","selflearn",NA,NA,"classesabroad","immersion","Deutschkurs, Filmen, Bücher","28","6 Jahre",1,"spulen","spuelen",1,"u","y","u/y","ns","u/y","0"
"jw5c","1058","blueten1500bluten","NULL","html-keyboard-response",75,344627,"0.0-8.0-1.31","NULL","80","Katalanisch, Spanisch ","21","classeshome","selflearn",NA,NA,"classesabroad","immersion","Deutschkurs, Filmen, Bücher","28","6 Jahre",1,"blueten","bluten",1,"y","u","u/y","ns","u/y","0"
"jw5c","696","blueten1500blueten","NULL","html-keyboard-response",81,357268,"0.0-8.0-1.34","NULL","81","Katalanisch, Spanisch ","21","classeshome","selflearn",NA,NA,"classesabroad","immersion","Deutschkurs, Filmen, Bücher","28","6 Jahre",0,"blueten","blueten",0,"y","y","y/y","ns","u/y","0"
"jw5c","900","tuer1500tour","NULL","html-keyboard-response",87,369769,"0.0-8.0-1.37","NULL","80","Katalanisch, Spanisch ","21","classeshome","selflearn",NA,NA,"classesabroad","immersion","Deutschkurs, Filmen, Bücher","28","6 Jahre",1,"tuer","tour",1,"y","u","u/y","ns","u/y","0"
"jw5c","565","bluten1500bluten","NULL","html-keyboard-response",93,382031,"0.0-8.0-1.40","NULL","81","Katalanisch, Spanisch ","21","classeshome","selflearn",NA,NA,"classesabroad","immersion","Deutschkurs, Filmen, Bücher","28","6 Jahre",0,"bluten","bluten",0,"u","u","u/u","ns","u/y","0"
"jw5c","675","spuelen1500spulen","NULL","html-keyboard-response",109,416320,"0.0-8.0-1.48","NULL","80","Katalanisch, Spanisch ","21","classeshome","selflearn",NA,NA,"classesabroad","immersion","Deutschkurs, Filmen, Bücher","28","6 Jahre",1,"spuelen","spulen",1,"y","u","u/y","ns","u/y","0"
"jw5c","957","spuelen1500spuelen","NULL","html-keyboard-response",139,478335,"0.0-8.0-1.63","NULL","81","Katalanisch, Spanisch ","21","classeshome","selflearn",NA,NA,"classesabroad","immersion","Deutschkurs, Filmen, Bücher","28","6 Jahre",0,"spuelen","spuelen",0,"y","y","y/y","ns","y/i","u/y"
"jw5c","104","spulen1500spulen","NULL","html-keyboard-response",143,486793,"0.0-8.0-1.65","NULL","81","Katalanisch, Spanisch ","21","classeshome","selflearn",NA,NA,"classesabroad","immersion","Deutschkurs, Filmen, Bücher","28","6 Jahre",0,"spulen","spulen",0,"u","u","u/u","ns","u/i","u/y"
"klvq","1147","blueten1500blueten","NULL","html-keyboard-response",14,342295,"0.0-8.0-1.1","NULL","81","Spanisch","22","on",NA,NA,NA,NA,NA,"Immersion und Deutschkurs","24","8 Jahre",0,"blueten","blueten",0,"y","y","y/y","ns","u/y","0"
"klvq","1187","spuelen1500spulen","NULL","html-keyboard-response",38,398191,"0.0-8.0-1.13","NULL","80","Spanisch","22","on",NA,NA,NA,NA,NA,"Immersion und Deutschkurs","24","8 Jahre",1,"spuelen","spulen",1,"y","u","u/y","ns","u/y","0"
"klvq","554","tour1500tour","NULL","html-keyboard-response",44,413056,"0.0-8.0-1.16","NULL","81","Spanisch","22","on",NA,NA,NA,NA,NA,"Immersion und Deutschkurs","24","8 Jahre",0,"tour","tour",0,"u","u","u/u","ns","u/i","u/y"
"klvq","809","bluten1500bluten","NULL","html-keyboard-response",46,417228,"0.0-8.0-1.17","NULL","81","Spanisch","22","on",NA,NA,NA,NA,NA,"Immersion und Deutschkurs","24","8 Jahre",0,"bluten","bluten",0,"u","u","u/u","ns","u/y","0"
"klvq","1214.9999999999","bluten1500blueten","NULL","html-keyboard-response",62,451203,"0.0-8.0-1.25","NULL","81","Spanisch","22","on",NA,NA,NA,NA,NA,"Immersion und Deutschkurs","24","8 Jahre",0,"bluten","blueten",1,"u","y","u/y","ns","u/y","0"
"klvq","828.00000000006","tuer1500tour","NULL","html-keyboard-response",66,459600,"0.0-8.0-1.27","NULL","80","Spanisch","22","on",NA,NA,NA,NA,NA,"Immersion und Deutschkurs","24","8 Jahre",1,"tuer","tour",1,"y","u","u/y","ns","u/y","0"
"klvq","1262","spulen1500spulen","NULL","html-keyboard-response",70,469437,"0.0-8.0-1.29","NULL","81","Spanisch","22","on",NA,NA,NA,NA,NA,"Immersion und Deutschkurs","24","8 Jahre",0,"spulen","spulen",0,"u","u","u/u","ns","u/i","u/y"
"klvq","1085","spulen1500spuelen","NULL","html-keyboard-response",76,482682,"0.0-8.0-1.32","NULL","80","Spanisch","22","on",NA,NA,NA,NA,NA,"Immersion und Deutschkurs","24","8 Jahre",1,"spulen","spuelen",1,"u","y","u/y","ns","u/y","0"
"klvq","789","tuer1500tuer","NULL","html-keyboard-response",80,490774,"0.0-8.0-1.34","NULL","81","Spanisch","22","on",NA,NA,NA,NA,NA,"Immersion und Deutschkurs","24","8 Jahre",0,"tuer","tuer",0,"y","y","y/y","ns","u/y","0"
"klvq","3676","tour1500tuer","NULL","html-keyboard-response",130,600638,"0.0-8.0-1.59","NULL","80","Spanisch","22","on",NA,NA,NA,NA,NA,"Immersion und Deutschkurs","24","8 Jahre",1,"tour","tuer",1,"u","y","u/y","ns","u/y","0"
"klvq","2364","blueten1500bluten","NULL","html-keyboard-response",142,627679,"0.0-8.0-1.65","NULL","80","Spanisch","22","on",NA,NA,NA,NA,NA,"Immersion und Deutschkurs","24","8 Jahre",1,"blueten","bluten",1,"y","u","u/y","ns","u/y","0"
"klvq","706","spuelen1500spuelen","NULL","html-keyboard-response",150,644772,"0.0-8.0-1.69","NULL","81","Spanisch","22","on",NA,NA,NA,NA,NA,"Immersion und Deutschkurs","24","8 Jahre",0,"spuelen","spuelen",0,"y","y","y/y","ns","y/i","u/y"
"mmy8","290","bluten1500bluten","NULL","html-keyboard-response",28,98188,"0.0-8.0-1.8","NULL","81","Spanisch","9",NA,NA,NA,NA,NA,"immersion","","9","3,5 Jahre",0,"bluten","bluten",0,"u","u","u/u","ns","u/y","0"
"mmy8","255","spulen1500spuelen","NULL","html-keyboard-response",46,132924,"0.0-8.0-1.17","NULL","80","Spanisch","9",NA,NA,NA,NA,NA,"immersion","","9","3,5 Jahre",1,"spulen","spuelen",1,"u","y","u/y","ns","u/y","0"
"mmy8","567.99999999997","tuer1500tuer","NULL","html-keyboard-response",66,171892,"0.0-8.0-1.27","NULL","81","Spanisch","9",NA,NA,NA,NA,NA,"immersion","","9","3,5 Jahre",0,"tuer","tuer",0,"y","y","y/y","ns","u/y","0"
"mmy8","322","tour1500tuer","NULL","html-keyboard-response",68,175381,"0.0-8.0-1.28","NULL","80","Spanisch","9",NA,NA,NA,NA,NA,"immersion","","9","3,5 Jahre",1,"tour","tuer",1,"u","y","u/y","ns","u/y","0"
"mmy8","996","tour1500tour","NULL","html-keyboard-response",76,191535,"0.0-8.0-1.32","NULL","81","Spanisch","9",NA,NA,NA,NA,NA,"immersion","","9","3,5 Jahre",0,"tour","tour",0,"u","u","u/u","ns","u/i","u/y"
"mmy8","237","bluten1500blueten","NULL","html-keyboard-response",82,202216,"0.0-8.0-1.35","NULL","80","Spanisch","9",NA,NA,NA,NA,NA,"immersion","","9","3,5 Jahre",1,"bluten","blueten",1,"u","y","u/y","ns","u/y","0"
"mmy8","281","spuelen1500spuelen","NULL","html-keyboard-response",84,206429,"0.0-8.0-1.36","NULL","80","Spanisch","9",NA,NA,NA,NA,NA,"immersion","","9","3,5 Jahre",1,"spuelen","spuelen",0,"y","y","y/y","ns","y/i","u/y"
"mmy8","830.00000000003","blueten1500blueten","NULL","html-keyboard-response",104,245893,"0.0-8.0-1.46","NULL","81","Spanisch","9",NA,NA,NA,NA,NA,"immersion","","9","3,5 Jahre",0,"blueten","blueten",0,"y","y","y/y","ns","u/y","0"
"mmy8","627","blueten1500bluten","NULL","html-keyboard-response",128,292871,"0.0-8.0-1.58","NULL","80","Spanisch","9",NA,NA,NA,NA,NA,"immersion","","9","3,5 Jahre",1,"blueten","bluten",1,"y","u","u/y","ns","u/y","0"
"mmy8","838","tuer1500tour","NULL","html-keyboard-response",134,305020,"0.0-8.0-1.61","NULL","80","Spanisch","9",NA,NA,NA,NA,NA,"immersion","","9","3,5 Jahre",1,"tuer","tour",1,"y","u","u/y","ns","u/y","0"
"mmy8","136","spuelen1500spulen","NULL","html-keyboard-response",138,313202,"0.0-8.0-1.63","NULL","80","Spanisch","9",NA,NA,NA,NA,NA,"immersion","","9","3,5 Jahre",1,"spuelen","spulen",1,"y","u","u/y","ns","u/y","0"
"mmy8","109","spulen1500spulen","NULL","html-keyboard-response",140,317281,"0.0-8.0-1.64","NULL","81","Spanisch","9",NA,NA,NA,NA,NA,"immersion","","9","3,5 Jahre",0,"spulen","spulen",0,"u","u","u/u","ns","u/i","u/y"
"n6v7","379.5","blueten1500bluten","NULL","html-keyboard-response",14,363923,"0.0-8.0-1.0","NULL","81","Spanisch","30 Jahre alt",NA,"selflearn",NA,NA,"classesabroad",NA,"ein Deutschkurs besuchen","30","fast 9 Jahre",0,"blueten","bluten",1,"y","u","u/y","ns","u/y","0"
"n6v7","1832.799999997","bluten1500blueten","NULL","html-keyboard-response",18,374605,"0.0-8.0-1.2","NULL","81","Spanisch","30 Jahre alt",NA,"selflearn",NA,NA,"classesabroad",NA,"ein Deutschkurs besuchen","30","fast 9 Jahre",0,"bluten","blueten",1,"u","y","u/y","ns","u/y","0"
"n6v7","461.39999999851","spulen1500spuelen","NULL","html-keyboard-response",20,378846,"0.0-8.0-1.3","NULL","80","Spanisch","30 Jahre alt",NA,"selflearn",NA,NA,"classesabroad",NA,"ein Deutschkurs besuchen","30","fast 9 Jahre",1,"spulen","spuelen",1,"u","y","u/y","ns","u/y","0"
"n6v7","390","blueten1500blueten","NULL","html-keyboard-response",30,398987,"0.0-8.0-1.8","NULL","81","Spanisch","30 Jahre alt",NA,"selflearn",NA,NA,"classesabroad",NA,"ein Deutschkurs besuchen","30","fast 9 Jahre",0,"blueten","blueten",0,"y","y","y/y","ns","u/y","0"
"n6v7","405.5","spuelen1500spuelen","NULL","html-keyboard-response",48,435917,"0.0-8.0-1.17","NULL","81","Spanisch","30 Jahre alt",NA,"selflearn",NA,NA,"classesabroad",NA,"ein Deutschkurs besuchen","30","fast 9 Jahre",0,"spuelen","spuelen",0,"y","y","y/y","ns","y/i","u/y"
"n6v7","753.5","tuer1500tuer","NULL","html-keyboard-response",66,471961,"0.0-8.0-1.26","NULL","81","Spanisch","30 Jahre alt",NA,"selflearn",NA,NA,"classesabroad",NA,"ein Deutschkurs besuchen","30","fast 9 Jahre",0,"tuer","tuer",0,"y","y","y/y","ns","u/y","0"
"n6v7","327.19999999553","spulen1500spulen","NULL","html-keyboard-response",70,481500,"0.0-8.0-1.28","NULL","81","Spanisch","30 Jahre alt",NA,"selflearn",NA,NA,"classesabroad",NA,"ein Deutschkurs besuchen","30","fast 9 Jahre",0,"spulen","spulen",0,"u","u","u/u","ns","u/i","u/y"
"n6v7","253.19999999553","spuelen1500spulen","NULL","html-keyboard-response",74,490115,"0.0-8.0-1.30","NULL","80","Spanisch","30 Jahre alt",NA,"selflearn",NA,NA,"classesabroad",NA,"ein Deutschkurs besuchen","30","fast 9 Jahre",1,"spuelen","spulen",1,"y","u","u/y","ns","u/y","0"
"n6v7","579.89999999851","bluten1500bluten","NULL","html-keyboard-response",76,494057,"0.0-8.0-1.31","NULL","81","Spanisch","30 Jahre alt",NA,"selflearn",NA,NA,"classesabroad",NA,"ein Deutschkurs besuchen","30","fast 9 Jahre",0,"bluten","bluten",0,"u","u","u/u","ns","u/y","0"
"n6v7","1578.1999999955","tour1500tuer","NULL","html-keyboard-response",84,510380,"0.0-8.0-1.35","NULL","80","Spanisch","30 Jahre alt",NA,"selflearn",NA,NA,"classesabroad",NA,"ein Deutschkurs besuchen","30","fast 9 Jahre",1,"tour","tuer",1,"u","y","u/y","ns","u/y","0"
"n6v7","550.29999999702","tour1500tour","NULL","html-keyboard-response",94,531242,"0.0-8.0-1.40","NULL","81","Spanisch","30 Jahre alt",NA,"selflearn",NA,NA,"classesabroad",NA,"ein Deutschkurs besuchen","30","fast 9 Jahre",0,"tour","tour",0,"u","u","u/u","ns","u/i","u/y"
"n6v7","983.79999999702","tuer1500tour","NULL","html-keyboard-response",138,621776,"0.0-8.0-1.62","NULL","80","Spanisch","30 Jahre alt",NA,"selflearn",NA,NA,"classesabroad",NA,"ein Deutschkurs besuchen","30","fast 9 Jahre",1,"tuer","tour",1,"y","u","u/y","ns","u/y","0"
