"subject","rt","stimulus","button_pressed","trial_type","trial_index","time_elapsed","internal_node_id","responses","key_press","group","native","AOL","LearnType1","LearnType2","LearnType3","LearnType4","LearnType5","LearnType6","which","AOA","timespent","audiostim","audiogiven","pic_choices","leftpic","rightpic","correct","vowelcontrast","lge"
"1fss","2169.3999999762","pics/scaled/biene_buehne.png","NULL","image-keyboard-response",163,1842563,"0.0-12.0-1.0","NULL","81","Nein","Spanisch","37",NA,"selflearn",NA,NA,"classesabroad",NA,"die Schule","37","2 Jahre","biene.wav","biene","biene_buehne","biene","buehne",1,"y/i","ns"
"1fss","3232.3000000715","pics/scaled/kiel_kuehl.jpg","NULL","image-keyboard-response",165,1847164,"0.0-12.0-1.1","NULL","81","Nein","Spanisch","37",NA,"selflearn",NA,NA,"classesabroad",NA,"die Schule","37","2 Jahre","kiel.wav","kiel","kiel_kuehl","kiel","kuehl",1,"y/i","ns"
"1fss","1141.7000000477","pics/scaled/spielen_spuelen.jpg","NULL","image-keyboard-response",167,1849934,"0.0-12.0-1.2","NULL","81","Nein","Spanisch","37",NA,"selflearn",NA,NA,"classesabroad",NA,"die Schule","37","2 Jahre","spielen.wav","spielen","spielen_spuelen","spielen","spuelen",1,"y/i","ns"
"1fss","708.40000009537","pics/scaled/kiel_kuehl.jpg","NULL","image-keyboard-response",171,1854431,"0.0-12.0-1.4","NULL","81","Nein","Spanisch","37",NA,"selflearn",NA,NA,"classesabroad",NA,"die Schule","37","2 Jahre","kiel.wav","kiel","kiel_kuehl","kiel","kuehl",1,"y/i","ns"
"1fss","1135.5","pics/scaled/spielen_spuelen.jpg","NULL","image-keyboard-response",173,1857199,"0.0-12.0-1.5","NULL","80","Nein","Spanisch","37",NA,"selflearn",NA,NA,"classesabroad",NA,"die Schule","37","2 Jahre","spuelen2.wav","spuelen","spielen_spuelen","spielen","spuelen",1,"y/i","ns"
"1fss","4343.2000000477","pics/scaled/still_stiel.jpg","NULL","image-keyboard-response",175,1863060,"0.0-12.0-1.6","NULL","81","Nein","Spanisch","37",NA,"selflearn",NA,NA,"classesabroad",NA,"die Schule","37","2 Jahre","stiel.wav","stiel","still_stiel","still","stiel",0,"i/I","ns"
"1fss","1025.2999999523","pics/scaled/schief_schiff.jpg","NULL","image-keyboard-response",177,1865549,"0.0-12.0-1.7","NULL","81","Nein","Spanisch","37",NA,"selflearn",NA,NA,"classesabroad",NA,"die Schule","37","2 Jahre","schief.wav","schief","schief_schiff","schief","schiff",1,"i/I","ns"
"1fss","3270.2999999523","pics/scaled/kiel_kuehl.jpg","NULL","image-keyboard-response",179,1870183,"0.0-12.0-1.8","NULL","80","Nein","Spanisch","37",NA,"selflearn",NA,NA,"classesabroad",NA,"die Schule","37","2 Jahre","kuehl.wav","kuehl","kiel_kuehl","kiel","kuehl",1,"y/i","ns"
"1fss","937.29999995232","pics/scaled/spielen_spuelen.jpg","NULL","image-keyboard-response",185,1881501,"0.0-12.0-1.11","NULL","81","Nein","Spanisch","37",NA,"selflearn",NA,NA,"classesabroad",NA,"die Schule","37","2 Jahre","spielen.wav","spielen","spielen_spuelen","spielen","spuelen",1,"y/i","ns"
"1fss","702.60000002384","pics/scaled/biene_buehne.png","NULL","image-keyboard-response",187,1883505,"0.0-12.0-1.12","NULL","81","Nein","Spanisch","37",NA,"selflearn",NA,NA,"classesabroad",NA,"die Schule","37","2 Jahre","biene.wav","biene","biene_buehne","biene","buehne",1,"y/i","ns"
"1fss","NULL","pics/scaled/spielen_spulen.jpg","NULL","image-keyboard-response",193,1897224,"0.0-12.0-1.15","NULL","NULL","Nein","Spanisch","37",NA,"selflearn",NA,NA,"classesabroad",NA,"die Schule","37","2 Jahre","spulen.wav","spulen","spielen_spulen","spulen","spielen",0,"i/u","ns"
"1fss","1897.5","pics/scaled/miete_mitte.jpg","NULL","image-keyboard-response",195,1900419,"0.0-12.0-1.16","NULL","81","Nein","Spanisch","37",NA,"selflearn",NA,NA,"classesabroad",NA,"die Schule","37","2 Jahre","mitte.wav","mitte","miete_mitte","mitte","miete",1,"i/I","ns"
"1fss","3424","pics/scaled/bluten_blueten.jpg","NULL","image-keyboard-response",197,1905176,"0.0-12.0-1.17","NULL","80","Nein","Spanisch","37",NA,"selflearn",NA,NA,"classesabroad",NA,"die Schule","37","2 Jahre","blueten.wav","blueten","bluten_blueten","blueten","bluten",0,"y/u","ns"
"1fss","NULL","pics/scaled/schief_schiff.jpg","NULL","image-keyboard-response",199,1911492,"0.0-12.0-1.18","NULL","NULL","Nein","Spanisch","37",NA,"selflearn",NA,NA,"classesabroad",NA,"die Schule","37","2 Jahre","schiff.wav","schiff","schief_schiff","schief","schiff",0,"i/I","ns"
"1fss","2618","pics/scaled/spielen_spulen.jpg","NULL","image-keyboard-response",201,1915749,"0.0-12.0-1.19","NULL","81","Nein","Spanisch","37",NA,"selflearn",NA,NA,"classesabroad",NA,"die Schule","37","2 Jahre","spulen.wav","spulen","spielen_spulen","spulen","spielen",1,"i/u","ns"
"1fss","2642.7999999523","pics/scaled/tier_tour.jpg","NULL","image-keyboard-response",205,1922485,"0.0-12.0-1.21","NULL","81","Nein","Spanisch","37",NA,"selflearn",NA,NA,"classesabroad",NA,"die Schule","37","2 Jahre","tier.wav","tier","tier_tour","tier","tour",1,"i/u","ns"
"1fss","1302.7999999523","pics/scaled/stiel_stuhl.jpg","NULL","image-keyboard-response",207,1925306,"0.0-12.0-1.22","NULL","80","Nein","Spanisch","37",NA,"selflearn",NA,NA,"classesabroad",NA,"die Schule","37","2 Jahre","stuhl.wav","stuhl","stiel_stuhl","stiel","stuhl",1,"i/u","ns"
"1fss","2066","pics/scaled/still_stiel.jpg","NULL","image-keyboard-response",211,1931719,"0.0-12.0-1.24","NULL","81","Nein","Spanisch","37",NA,"selflearn",NA,NA,"classesabroad",NA,"die Schule","37","2 Jahre","still.wav","still","still_stiel","still","stiel",1,"i/I","ns"
"1fss","748.60000002384","pics/scaled/biene_buehne.png","NULL","image-keyboard-response",215,1940341,"0.0-12.0-1.26","NULL","81","Nein","Spanisch","37",NA,"selflearn",NA,NA,"classesabroad",NA,"die Schule","37","2 Jahre","biene.wav","biene","biene_buehne","biene","buehne",1,"y/i","ns"
"1fss","3481.3000000715","pics/scaled/spulen_spuelen.jpg","NULL","image-keyboard-response",217,1945463,"0.0-12.0-1.27","NULL","80","Nein","Spanisch","37",NA,"selflearn",NA,NA,"classesabroad",NA,"die Schule","37","2 Jahre","spulen.wav","spulen","spulen_spuelen","spulen","spuelen",0,"y/u","ns"
"1fss","2603.5","pics/scaled/spielen_spulen.jpg","NULL","image-keyboard-response",219,1949717,"0.0-12.0-1.28","NULL","81","Nein","Spanisch","37",NA,"selflearn",NA,NA,"classesabroad",NA,"die Schule","37","2 Jahre","spulen.wav","spulen","spielen_spulen","spulen","spielen",1,"i/u","ns"
"1fss","2307.5","pics/scaled/tuer_tour.jpg","NULL","image-keyboard-response",221,1953260,"0.0-12.0-1.29","NULL","80","Nein","Spanisch","37",NA,"selflearn",NA,NA,"classesabroad",NA,"die Schule","37","2 Jahre","tour.wav","tour","tuer_tour","tour","tuer",0,"y/u","ns"
"1fss","425.70000004768","pics/scaled/spulen_spuelen.jpg","NULL","image-keyboard-response",223,1955309,"0.0-12.0-1.30","NULL","80","Nein","Spanisch","37",NA,"selflearn",NA,NA,"classesabroad",NA,"die Schule","37","2 Jahre","spuelen2.wav","spuelen","spulen_spuelen","spulen","spuelen",1,"y/u","ns"
"1fss","265.5","pics/scaled/spielen_spuelen.jpg","NULL","image-keyboard-response",225,1957198,"0.0-12.0-1.31","NULL","80","Nein","Spanisch","37",NA,"selflearn",NA,NA,"classesabroad",NA,"die Schule","37","2 Jahre","spuelen2.wav","spuelen","spielen_spuelen","spielen","spuelen",1,"y/i","ns"
"1fss","4534.2999999523","pics/scaled/schief_schiff.jpg","NULL","image-keyboard-response",229,1965808,"0.0-12.0-1.33","NULL","80","Nein","Spanisch","37",NA,"selflearn",NA,NA,"classesabroad",NA,"die Schule","37","2 Jahre","schief.wav","schief","schief_schiff","schief","schiff",0,"i/I","ns"
"1fss","699.39999997616","pics/scaled/spielen_spuelen.jpg","NULL","image-keyboard-response",237,1977731,"0.0-12.0-1.37","NULL","80","Nein","Spanisch","37",NA,"selflearn",NA,NA,"classesabroad",NA,"die Schule","37","2 Jahre","spuelen2.wav","spuelen","spielen_spuelen","spielen","spuelen",1,"y/i","ns"
"1fss","712.70000004768","pics/scaled/spielen_spuelen.jpg","NULL","image-keyboard-response",247,1993405,"0.0-12.0-1.42","NULL","81","Nein","Spanisch","37",NA,"selflearn",NA,NA,"classesabroad",NA,"die Schule","37","2 Jahre","spielen.wav","spielen","spielen_spuelen","spielen","spuelen",1,"y/i","ns"
"1fss","1001.3000000715","pics/scaled/tier_tour.jpg","NULL","image-keyboard-response",249,1995645,"0.0-12.0-1.43","NULL","81","Nein","Spanisch","37",NA,"selflearn",NA,NA,"classesabroad",NA,"die Schule","37","2 Jahre","tier.wav","tier","tier_tour","tier","tour",1,"i/u","ns"
"1fss","2466.7000000477","pics/scaled/kiel_kuehl.jpg","NULL","image-keyboard-response",251,1999479,"0.0-12.0-1.44","NULL","80","Nein","Spanisch","37",NA,"selflearn",NA,NA,"classesabroad",NA,"die Schule","37","2 Jahre","kuehl.wav","kuehl","kiel_kuehl","kiel","kuehl",1,"y/i","ns"
"1fss","1651.7000000477","pics/scaled/still_stiel.jpg","NULL","image-keyboard-response",253,2002566,"0.0-12.0-1.45","NULL","81","Nein","Spanisch","37",NA,"selflearn",NA,NA,"classesabroad",NA,"die Schule","37","2 Jahre","still.wav","still","still_stiel","still","stiel",1,"i/I","ns"
"1fss","755.60000002384","pics/scaled/miete_mitte.jpg","NULL","image-keyboard-response",255,2004619,"0.0-12.0-1.46","NULL","81","Nein","Spanisch","37",NA,"selflearn",NA,NA,"classesabroad",NA,"die Schule","37","2 Jahre","mitte.wav","mitte","miete_mitte","mitte","miete",1,"i/I","ns"
"1fss","1434.0999999046","pics/scaled/biene_buehne.png","NULL","image-keyboard-response",257,2007358,"0.0-12.0-1.47","NULL","80","Nein","Spanisch","37",NA,"selflearn",NA,NA,"classesabroad",NA,"die Schule","37","2 Jahre","buehne.wav","buehne","biene_buehne","biene","buehne",1,"y/i","ns"
"1fss","2631.8999999762","pics/scaled/stiel_stuhl.jpg","NULL","image-keyboard-response",259,2011505,"0.0-12.0-1.48","NULL","81","Nein","Spanisch","37",NA,"selflearn",NA,NA,"classesabroad",NA,"die Schule","37","2 Jahre","stiel.wav","stiel","stiel_stuhl","stiel","stuhl",1,"i/u","ns"
"1fss","2917.8000000715","pics/scaled/bluten_blueten.jpg","NULL","image-keyboard-response",263,2018760,"0.0-12.0-1.50","NULL","80","Nein","Spanisch","37",NA,"selflearn",NA,NA,"classesabroad",NA,"die Schule","37","2 Jahre","blueten.wav","blueten","bluten_blueten","blueten","bluten",0,"y/u","ns"
"1fss","1308.5","pics/scaled/bluten_blueten.jpg","NULL","image-keyboard-response",273,2034681,"0.0-12.0-1.55","NULL","80","Nein","Spanisch","37",NA,"selflearn",NA,NA,"classesabroad",NA,"die Schule","37","2 Jahre","blueten.wav","blueten","bluten_blueten","blueten","bluten",0,"y/u","ns"
"1fss","1134.3999999762","pics/scaled/tuer_tour.jpg","NULL","image-keyboard-response",275,2037048,"0.0-12.0-1.56","NULL","80","Nein","Spanisch","37",NA,"selflearn",NA,NA,"classesabroad",NA,"die Schule","37","2 Jahre","tuer.wav","tuer","tuer_tour","tour","tuer",1,"y/u","ns"
"1fss","NULL","pics/scaled/schief_schiff.jpg","NULL","image-keyboard-response",277,2043513,"0.0-12.0-1.57","NULL","NULL","Nein","Spanisch","37",NA,"selflearn",NA,NA,"classesabroad",NA,"die Schule","37","2 Jahre","schief.wav","schief","schief_schiff","schief","schiff",0,"i/I","ns"
"1fss","4536","pics/scaled/tuer_tour.jpg","NULL","image-keyboard-response",287,2062457,"0.0-12.0-1.62","NULL","80","Nein","Spanisch","37",NA,"selflearn",NA,NA,"classesabroad",NA,"die Schule","37","2 Jahre","tour.wav","tour","tuer_tour","tour","tuer",0,"y/u","ns"
"1fss","3584","pics/scaled/tier_tour.jpg","NULL","image-keyboard-response",289,2067275,"0.0-12.0-1.63","NULL","80","Nein","Spanisch","37",NA,"selflearn",NA,NA,"classesabroad",NA,"die Schule","37","2 Jahre","tour.wav","tour","tier_tour","tier","tour",1,"i/u","ns"
"1fss","894.80000007153","pics/scaled/spielen_spulen.jpg","NULL","image-keyboard-response",295,2075796,"0.0-12.0-1.66","NULL","80","Nein","Spanisch","37",NA,"selflearn",NA,NA,"classesabroad",NA,"die Schule","37","2 Jahre","spielen2.wav","spielen","spielen_spulen","spulen","spielen",1,"i/u","ns"
"1fss","315.89999997616","pics/scaled/spielen_spulen.jpg","NULL","image-keyboard-response",297,2077746,"0.0-12.0-1.67","NULL","80","Nein","Spanisch","37",NA,"selflearn",NA,NA,"classesabroad",NA,"die Schule","37","2 Jahre","spielen2.wav","spielen","spielen_spulen","spulen","spielen",1,"i/u","ns"
"1fss","410.5","pics/scaled/spielen_spulen.jpg","NULL","image-keyboard-response",301,2081901,"0.0-12.0-1.69","NULL","80","Nein","Spanisch","37",NA,"selflearn",NA,NA,"classesabroad",NA,"die Schule","37","2 Jahre","spielen2.wav","spielen","spielen_spulen","spulen","spielen",1,"i/u","ns"
"1fss","455.5","pics/scaled/spulen_spuelen.jpg","NULL","image-keyboard-response",305,2089115,"0.0-12.0-1.71","NULL","80","Nein","Spanisch","37",NA,"selflearn",NA,NA,"classesabroad",NA,"die Schule","37","2 Jahre","spuelen2.wav","spuelen","spulen_spuelen","spulen","spuelen",1,"y/u","ns"
"1fss","806.30000007153","pics/scaled/stiel_stuhl.jpg","NULL","image-keyboard-response",307,2091436,"0.0-12.0-1.72","NULL","80","Nein","Spanisch","37",NA,"selflearn",NA,NA,"classesabroad",NA,"die Schule","37","2 Jahre","stuhl.wav","stuhl","stiel_stuhl","stiel","stuhl",1,"i/u","ns"
"1fss","1886.0999999046","pics/scaled/still_stiel.jpg","NULL","image-keyboard-response",311,2101157,"0.0-12.0-1.74","NULL","80","Nein","Spanisch","37",NA,"selflearn",NA,NA,"classesabroad",NA,"die Schule","37","2 Jahre","stiel.wav","stiel","still_stiel","still","stiel",1,"i/I","ns"
"1fss","3142.2999999523","pics/scaled/tuer_tour.jpg","NULL","image-keyboard-response",313,2105534,"0.0-12.0-1.75","NULL","81","Nein","Spanisch","37",NA,"selflearn",NA,NA,"classesabroad",NA,"die Schule","37","2 Jahre","tour.wav","tour","tuer_tour","tour","tuer",1,"y/u","ns"
"1fss","520.89999997616","pics/scaled/spulen_spuelen.jpg","NULL","image-keyboard-response",317,2110632,"0.0-12.0-1.77","NULL","80","Nein","Spanisch","37",NA,"selflearn",NA,NA,"classesabroad",NA,"die Schule","37","2 Jahre","spulen.wav","spulen","spulen_spuelen","spulen","spuelen",0,"y/u","ns"
"1fss","1037.4000000954","pics/scaled/tier_tour.jpg","NULL","image-keyboard-response",319,2112909,"0.0-12.0-1.78","NULL","80","Nein","Spanisch","37",NA,"selflearn",NA,NA,"classesabroad",NA,"die Schule","37","2 Jahre","tour.wav","tour","tier_tour","tier","tour",1,"i/u","ns"
"1fss","1261.4000000954","pics/scaled/still_stiel.jpg","NULL","image-keyboard-response",321,2115682,"0.0-12.0-1.79","NULL","80","Nein","Spanisch","37",NA,"selflearn",NA,NA,"classesabroad",NA,"die Schule","37","2 Jahre","stiel.wav","stiel","still_stiel","still","stiel",1,"i/I","ns"
"1fss","4564.2000000477","pics/scaled/bluten_blueten.jpg","NULL","image-keyboard-response",323,2121574,"0.0-12.0-1.80","NULL","81","Nein","Spanisch","37",NA,"selflearn",NA,NA,"classesabroad",NA,"die Schule","37","2 Jahre","bluten.wav","bluten","bluten_blueten","blueten","bluten",0,"y/u","ns"
"1fss","1386.8999999762","pics/scaled/tuer_tour.jpg","NULL","image-keyboard-response",325,2124198,"0.0-12.0-1.81","NULL","81","Nein","Spanisch","37",NA,"selflearn",NA,NA,"classesabroad",NA,"die Schule","37","2 Jahre","tuer.wav","tuer","tuer_tour","tour","tuer",0,"y/u","ns"
"1fss","1590.3000000715","pics/scaled/tier_tour.jpg","NULL","image-keyboard-response",327,2127022,"0.0-12.0-1.82","NULL","80","Nein","Spanisch","37",NA,"selflearn",NA,NA,"classesabroad",NA,"die Schule","37","2 Jahre","tour.wav","tour","tier_tour","tier","tour",1,"i/u","ns"
"1fss","1074.7000000477","pics/scaled/stiel_stuhl.jpg","NULL","image-keyboard-response",331,2132395,"0.0-12.0-1.84","NULL","80","Nein","Spanisch","37",NA,"selflearn",NA,NA,"classesabroad",NA,"die Schule","37","2 Jahre","stuhl.wav","stuhl","stiel_stuhl","stiel","stuhl",1,"i/u","ns"
"1fss","NULL","pics/scaled/still_stiel.jpg","NULL","image-keyboard-response",333,2138833,"0.0-12.0-1.85","NULL","NULL","Nein","Spanisch","37",NA,"selflearn",NA,NA,"classesabroad",NA,"die Schule","37","2 Jahre","still.wav","still","still_stiel","still","stiel",0,"i/I","ns"
"1fss","413.30000007153","pics/scaled/spulen_spuelen.jpg","NULL","image-keyboard-response",335,2140884,"0.0-12.0-1.86","NULL","80","Nein","Spanisch","37",NA,"selflearn",NA,NA,"classesabroad",NA,"die Schule","37","2 Jahre","spulen.wav","spulen","spulen_spuelen","spulen","spuelen",0,"y/u","ns"
"1fss","2598.5","pics/scaled/kiel_kuehl.jpg","NULL","image-keyboard-response",337,2144849,"0.0-12.0-1.87","NULL","80","Nein","Spanisch","37",NA,"selflearn",NA,NA,"classesabroad",NA,"die Schule","37","2 Jahre","kuehl.wav","kuehl","kiel_kuehl","kiel","kuehl",1,"y/i","ns"
"1fss","1380.2999999523","pics/scaled/stiel_stuhl.jpg","NULL","image-keyboard-response",341,2150491,"0.0-12.0-1.89","NULL","81","Nein","Spanisch","37",NA,"selflearn",NA,NA,"classesabroad",NA,"die Schule","37","2 Jahre","stiel.wav","stiel","stiel_stuhl","stiel","stuhl",1,"i/u","ns"
"1fss","4232.1000000238","pics/scaled/tier_tour.jpg","NULL","image-keyboard-response",345,2158444,"0.0-12.0-1.91","NULL","81","Nein","Spanisch","37",NA,"selflearn",NA,NA,"classesabroad",NA,"die Schule","37","2 Jahre","tier.wav","tier","tier_tour","tier","tour",1,"i/u","ns"
"1fss","1060.1000000238","pics/scaled/biene_buehne.png","NULL","image-keyboard-response",347,2160811,"0.0-12.0-1.92","NULL","80","Nein","Spanisch","37",NA,"selflearn",NA,NA,"classesabroad",NA,"die Schule","37","2 Jahre","buehne.wav","buehne","biene_buehne","biene","buehne",1,"y/i","ns"
"1fss","NULL","pics/scaled/tuer_tour.jpg","NULL","image-keyboard-response",349,2167042,"0.0-12.0-1.93","NULL","NULL","Nein","Spanisch","37",NA,"selflearn",NA,NA,"classesabroad",NA,"die Schule","37","2 Jahre","tuer.wav","tuer","tuer_tour","tour","tuer",0,"y/u","ns"
"1fss","2124.6000000238","pics/scaled/schief_schiff.jpg","NULL","image-keyboard-response",351,2170477,"0.0-12.0-1.94","NULL","80","Nein","Spanisch","37",NA,"selflearn",NA,NA,"classesabroad",NA,"die Schule","37","2 Jahre","schiff.wav","schiff","schief_schiff","schief","schiff",1,"i/I","ns"
"1fss","3875.5","pics/scaled/miete_mitte.jpg","NULL","image-keyboard-response",357,2180726,"0.0-12.0-1.97","NULL","80","Nein","Spanisch","37",NA,"selflearn",NA,NA,"classesabroad",NA,"die Schule","37","2 Jahre","miete.wav","miete","miete_mitte","mitte","miete",1,"i/I","ns"
"1fss","1621.3999999762","pics/scaled/kiel_kuehl.jpg","NULL","image-keyboard-response",363,2188872,"0.0-12.0-1.100","NULL","81","Nein","Spanisch","37",NA,"selflearn",NA,NA,"classesabroad",NA,"die Schule","37","2 Jahre","kiel.wav","kiel","kiel_kuehl","kiel","kuehl",1,"y/i","ns"
"1fss","3635.7999999523","pics/scaled/miete_mitte.jpg","NULL","image-keyboard-response",367,2196608,"0.0-12.0-1.102","NULL","80","Nein","Spanisch","37",NA,"selflearn",NA,NA,"classesabroad",NA,"die Schule","37","2 Jahre","miete.wav","miete","miete_mitte","mitte","miete",1,"i/I","ns"
"1fss","1006.5","pics/scaled/bluten_blueten.jpg","NULL","image-keyboard-response",369,2198947,"0.0-12.0-1.103","NULL","81","Nein","Spanisch","37",NA,"selflearn",NA,NA,"classesabroad",NA,"die Schule","37","2 Jahre","bluten.wav","bluten","bluten_blueten","blueten","bluten",0,"y/u","ns"
"1fss","1793.8000000715","pics/scaled/schief_schiff.jpg","NULL","image-keyboard-response",371,2202054,"0.0-12.0-1.104","NULL","80","Nein","Spanisch","37",NA,"selflearn",NA,NA,"classesabroad",NA,"die Schule","37","2 Jahre","schiff.wav","schiff","schief_schiff","schief","schiff",1,"i/I","ns"
"1fss","4423.5","pics/scaled/miete_mitte.jpg","NULL","image-keyboard-response",375,2210326,"0.0-12.0-1.106","NULL","81","Nein","Spanisch","37",NA,"selflearn",NA,NA,"classesabroad",NA,"die Schule","37","2 Jahre","mitte.wav","mitte","miete_mitte","mitte","miete",1,"i/I","ns"
"1fss","617.39999997616","pics/scaled/spulen_spuelen.jpg","NULL","image-keyboard-response",377,2212571,"0.0-12.0-1.107","NULL","80","Nein","Spanisch","37",NA,"selflearn",NA,NA,"classesabroad",NA,"die Schule","37","2 Jahre","spuelen2.wav","spuelen","spulen_spuelen","spulen","spuelen",1,"y/u","ns"
"1fss","1383","pics/scaled/miete_mitte.jpg","NULL","image-keyboard-response",387,2227684,"0.0-12.0-1.112","NULL","80","Nein","Spanisch","37",NA,"selflearn",NA,NA,"classesabroad",NA,"die Schule","37","2 Jahre","miete.wav","miete","miete_mitte","mitte","miete",1,"i/I","ns"
"1fss","2722","pics/scaled/stiel_stuhl.jpg","NULL","image-keyboard-response",389,2231923,"0.0-12.0-1.113","NULL","81","Nein","Spanisch","37",NA,"selflearn",NA,NA,"classesabroad",NA,"die Schule","37","2 Jahre","stiel.wav","stiel","stiel_stuhl","stiel","stuhl",1,"i/u","ns"
"1fss","883.69999992847","pics/scaled/biene_buehne.png","NULL","image-keyboard-response",393,2237346,"0.0-12.0-1.115","NULL","80","Nein","Spanisch","37",NA,"selflearn",NA,NA,"classesabroad",NA,"die Schule","37","2 Jahre","buehne.wav","buehne","biene_buehne","biene","buehne",1,"y/i","ns"
"1fss","2805","pics/scaled/bluten_blueten.jpg","NULL","image-keyboard-response",397,2243477,"0.0-12.0-1.117","NULL","80","Nein","Spanisch","37",NA,"selflearn",NA,NA,"classesabroad",NA,"die Schule","37","2 Jahre","bluten.wav","bluten","bluten_blueten","blueten","bluten",1,"y/u","ns"
"90gm","2964","pics/scaled/stiel_stuhl.jpg","NULL","image-keyboard-response",163,684616,"0.0-12.0-1.0","NULL","81","Nein","Spanisch","20",NA,NA,NA,"uni","classesabroad","immersion","","20","34 Jahren","stiel.wav","stiel","stiel_stuhl","stiel","stuhl",1,"i/u","ns"
"90gm","1392","pics/scaled/spielen_spuelen.jpg","NULL","image-keyboard-response",165,687661,"0.0-12.0-1.1","NULL","81","Nein","Spanisch","20",NA,NA,NA,"uni","classesabroad","immersion","","20","34 Jahren","spielen.wav","spielen","spielen_spuelen","spielen","spuelen",1,"y/i","ns"
"90gm","2968","pics/scaled/tier_tour.jpg","NULL","image-keyboard-response",169,694347,"0.0-12.0-1.3","NULL","80","Nein","Spanisch","20",NA,NA,NA,"uni","classesabroad","immersion","","20","34 Jahren","tour.wav","tour","tier_tour","tier","tour",1,"i/u","ns"
"90gm","707","pics/scaled/spielen_spuelen.jpg","NULL","image-keyboard-response",171,696696,"0.0-12.0-1.4","NULL","80","Nein","Spanisch","20",NA,NA,NA,"uni","classesabroad","immersion","","20","34 Jahren","spuelen2.wav","spuelen","spielen_spuelen","spielen","spuelen",1,"y/i","ns"
"90gm","427","pics/scaled/spulen_spuelen.jpg","NULL","image-keyboard-response",173,698785,"0.0-12.0-1.5","NULL","80","Nein","Spanisch","20",NA,NA,NA,"uni","classesabroad","immersion","","20","34 Jahren","spuelen2.wav","spuelen","spulen_spuelen","spulen","spuelen",1,"y/u","ns"
"90gm","439","pics/scaled/spielen_spuelen.jpg","NULL","image-keyboard-response",175,700868,"0.0-12.0-1.6","NULL","81","Nein","Spanisch","20",NA,NA,NA,"uni","classesabroad","immersion","","20","34 Jahren","spielen.wav","spielen","spielen_spuelen","spielen","spuelen",1,"y/i","ns"
"90gm","790","pics/scaled/stiel_stuhl.jpg","NULL","image-keyboard-response",179,707440,"0.0-12.0-1.8","NULL","80","Nein","Spanisch","20",NA,NA,NA,"uni","classesabroad","immersion","","20","34 Jahren","stuhl.wav","stuhl","stiel_stuhl","stiel","stuhl",1,"i/u","ns"
"90gm","982","pics/scaled/schief_schiff.jpg","NULL","image-keyboard-response",181,709779,"0.0-12.0-1.9","NULL","80","Nein","Spanisch","20",NA,NA,NA,"uni","classesabroad","immersion","","20","34 Jahren","schiff.wav","schiff","schief_schiff","schief","schiff",1,"i/I","ns"
"90gm","3810","pics/scaled/still_stiel.jpg","NULL","image-keyboard-response",183,715056,"0.0-12.0-1.10","NULL","80","Nein","Spanisch","20",NA,NA,NA,"uni","classesabroad","immersion","","20","34 Jahren","still.wav","still","still_stiel","still","stiel",0,"i/I","ns"
"90gm","1258","pics/scaled/miete_mitte.jpg","NULL","image-keyboard-response",185,717651,"0.0-12.0-1.11","NULL","81","Nein","Spanisch","20",NA,NA,NA,"uni","classesabroad","immersion","","20","34 Jahren","mitte.wav","mitte","miete_mitte","mitte","miete",1,"i/I","ns"
"90gm","1239","pics/scaled/biene_buehne.png","NULL","image-keyboard-response",187,720226,"0.0-12.0-1.12","NULL","80","Nein","Spanisch","20",NA,NA,NA,"uni","classesabroad","immersion","","20","34 Jahren","buehne.wav","buehne","biene_buehne","biene","buehne",1,"y/i","ns"
"90gm","702","pics/scaled/still_stiel.jpg","NULL","image-keyboard-response",191,724632,"0.0-12.0-1.14","NULL","80","Nein","Spanisch","20",NA,NA,NA,"uni","classesabroad","immersion","","20","34 Jahren","stiel.wav","stiel","still_stiel","still","stiel",1,"i/I","ns"
"90gm","545","pics/scaled/schief_schiff.jpg","NULL","image-keyboard-response",193,726664,"0.0-12.0-1.15","NULL","81","Nein","Spanisch","20",NA,NA,NA,"uni","classesabroad","immersion","","20","34 Jahren","schief.wav","schief","schief_schiff","schief","schiff",1,"i/I","ns"
"90gm","350","pics/scaled/still_stiel.jpg","NULL","image-keyboard-response",199,732543,"0.0-12.0-1.18","NULL","80","Nein","Spanisch","20",NA,NA,NA,"uni","classesabroad","immersion","","20","34 Jahren","stiel.wav","stiel","still_stiel","still","stiel",1,"i/I","ns"
"90gm","2562","pics/scaled/kiel_kuehl.jpg","NULL","image-keyboard-response",201,736498,"0.0-12.0-1.19","NULL","80","Nein","Spanisch","20",NA,NA,NA,"uni","classesabroad","immersion","","20","34 Jahren","kuehl.wav","kuehl","kiel_kuehl","kiel","kuehl",1,"y/i","ns"
"90gm","861","pics/scaled/bluten_blueten.jpg","NULL","image-keyboard-response",205,741914,"0.0-12.0-1.21","NULL","80","Nein","Spanisch","20",NA,NA,NA,"uni","classesabroad","immersion","","20","34 Jahren","bluten.wav","bluten","bluten_blueten","blueten","bluten",1,"y/u","ns"
"90gm","738","pics/scaled/tier_tour.jpg","NULL","image-keyboard-response",209,745957,"0.0-12.0-1.23","NULL","81","Nein","Spanisch","20",NA,NA,NA,"uni","classesabroad","immersion","","20","34 Jahren","tier.wav","tier","tier_tour","tier","tour",1,"i/u","ns"
"90gm","779","pics/scaled/stiel_stuhl.jpg","NULL","image-keyboard-response",211,748265,"0.0-12.0-1.24","NULL","81","Nein","Spanisch","20",NA,NA,NA,"uni","classesabroad","immersion","","20","34 Jahren","stiel.wav","stiel","stiel_stuhl","stiel","stuhl",1,"i/u","ns"
"90gm","561","pics/scaled/biene_buehne.png","NULL","image-keyboard-response",213,750157,"0.0-12.0-1.25","NULL","80","Nein","Spanisch","20",NA,NA,NA,"uni","classesabroad","immersion","","20","34 Jahren","buehne.wav","buehne","biene_buehne","biene","buehne",1,"y/i","ns"
"90gm","1411","pics/scaled/bluten_blueten.jpg","NULL","image-keyboard-response",229,770716,"0.0-12.0-1.33","NULL","80","Nein","Spanisch","20",NA,NA,NA,"uni","classesabroad","immersion","","20","34 Jahren","bluten.wav","bluten","bluten_blueten","blueten","bluten",1,"y/u","ns"
"90gm","964","pics/scaled/bluten_blueten.jpg","NULL","image-keyboard-response",231,773026,"0.0-12.0-1.34","NULL","81","Nein","Spanisch","20",NA,NA,NA,"uni","classesabroad","immersion","","20","34 Jahren","blueten.wav","blueten","bluten_blueten","blueten","bluten",1,"y/u","ns"
"90gm","1496","pics/scaled/kiel_kuehl.jpg","NULL","image-keyboard-response",235,777781,"0.0-12.0-1.36","NULL","81","Nein","Spanisch","20",NA,NA,NA,"uni","classesabroad","immersion","","20","34 Jahren","kiel.wav","kiel","kiel_kuehl","kiel","kuehl",1,"y/i","ns"
"90gm","718","pics/scaled/kiel_kuehl.jpg","NULL","image-keyboard-response",237,779891,"0.0-12.0-1.37","NULL","80","Nein","Spanisch","20",NA,NA,NA,"uni","classesabroad","immersion","","20","34 Jahren","kuehl.wav","kuehl","kiel_kuehl","kiel","kuehl",1,"y/i","ns"
"90gm","3210","pics/scaled/miete_mitte.jpg","NULL","image-keyboard-response",239,784523,"0.0-12.0-1.38","NULL","80","Nein","Spanisch","20",NA,NA,NA,"uni","classesabroad","immersion","","20","34 Jahren","miete.wav","miete","miete_mitte","mitte","miete",1,"i/I","ns"
"90gm","1769","pics/scaled/spulen_spuelen.jpg","NULL","image-keyboard-response",241,787975,"0.0-12.0-1.39","NULL","81","Nein","Spanisch","20",NA,NA,NA,"uni","classesabroad","immersion","","20","34 Jahren","spulen.wav","spulen","spulen_spuelen","spulen","spuelen",1,"y/u","ns"
"90gm","406","pics/scaled/spielen_spulen.jpg","NULL","image-keyboard-response",245,792361,"0.0-12.0-1.41","NULL","81","Nein","Spanisch","20",NA,NA,NA,"uni","classesabroad","immersion","","20","34 Jahren","spulen.wav","spulen","spielen_spulen","spulen","spielen",1,"i/u","ns"
"90gm","1856","pics/scaled/miete_mitte.jpg","NULL","image-keyboard-response",247,795640,"0.0-12.0-1.42","NULL","81","Nein","Spanisch","20",NA,NA,NA,"uni","classesabroad","immersion","","20","34 Jahren","miete.wav","miete","miete_mitte","mitte","miete",0,"i/I","ns"
"90gm","1343","pics/scaled/spulen_spuelen.jpg","NULL","image-keyboard-response",257,809656,"0.0-12.0-1.47","NULL","81","Nein","Spanisch","20",NA,NA,NA,"uni","classesabroad","immersion","","20","34 Jahren","spulen.wav","spulen","spulen_spuelen","spulen","spuelen",1,"y/u","ns"
"90gm","760","pics/scaled/tuer_tour.jpg","NULL","image-keyboard-response",261,813563,"0.0-12.0-1.49","NULL","80","Nein","Spanisch","20",NA,NA,NA,"uni","classesabroad","immersion","","20","34 Jahren","tuer.wav","tuer","tuer_tour","tour","tuer",1,"y/u","ns"
"90gm","1698","pics/scaled/spulen_spuelen.jpg","NULL","image-keyboard-response",263,816918,"0.0-12.0-1.50","NULL","81","Nein","Spanisch","20",NA,NA,NA,"uni","classesabroad","immersion","","20","34 Jahren","spulen.wav","spulen","spulen_spuelen","spulen","spuelen",1,"y/u","ns"
"90gm","463","pics/scaled/biene_buehne.png","NULL","image-keyboard-response",265,818702,"0.0-12.0-1.51","NULL","80","Nein","Spanisch","20",NA,NA,NA,"uni","classesabroad","immersion","","20","34 Jahren","buehne.wav","buehne","biene_buehne","biene","buehne",1,"y/i","ns"
"90gm","1163","pics/scaled/miete_mitte.jpg","NULL","image-keyboard-response",267,821286,"0.0-12.0-1.52","NULL","80","Nein","Spanisch","20",NA,NA,NA,"uni","classesabroad","immersion","","20","34 Jahren","miete.wav","miete","miete_mitte","mitte","miete",1,"i/I","ns"
"90gm","413","pics/scaled/schief_schiff.jpg","NULL","image-keyboard-response",273,827713,"0.0-12.0-1.55","NULL","81","Nein","Spanisch","20",NA,NA,NA,"uni","classesabroad","immersion","","20","34 Jahren","schief.wav","schief","schief_schiff","schief","schiff",1,"i/I","ns"
"90gm","916","pics/scaled/spielen_spuelen.jpg","NULL","image-keyboard-response",275,830282,"0.0-12.0-1.56","NULL","81","Nein","Spanisch","20",NA,NA,NA,"uni","classesabroad","immersion","","20","34 Jahren","spielen.wav","spielen","spielen_spuelen","spielen","spuelen",1,"y/i","ns"
"90gm","1122","pics/scaled/schief_schiff.jpg","NULL","image-keyboard-response",279,835233,"0.0-12.0-1.58","NULL","81","Nein","Spanisch","20",NA,NA,NA,"uni","classesabroad","immersion","","20","34 Jahren","schief.wav","schief","schief_schiff","schief","schiff",1,"i/I","ns"
"90gm","777","pics/scaled/tuer_tour.jpg","NULL","image-keyboard-response",285,841869,"0.0-12.0-1.61","NULL","80","Nein","Spanisch","20",NA,NA,NA,"uni","classesabroad","immersion","","20","34 Jahren","tuer.wav","tuer","tuer_tour","tour","tuer",1,"y/u","ns"
"90gm","474","pics/scaled/tier_tour.jpg","NULL","image-keyboard-response",287,843618,"0.0-12.0-1.62","NULL","81","Nein","Spanisch","20",NA,NA,NA,"uni","classesabroad","immersion","","20","34 Jahren","tier.wav","tier","tier_tour","tier","tour",1,"i/u","ns"
"90gm","176","pics/scaled/spielen_spulen.jpg","NULL","image-keyboard-response",289,845453,"0.0-12.0-1.63","NULL","80","Nein","Spanisch","20",NA,NA,NA,"uni","classesabroad","immersion","","20","34 Jahren","spielen2.wav","spielen","spielen_spulen","spulen","spielen",1,"i/u","ns"
"90gm","638","pics/scaled/biene_buehne.png","NULL","image-keyboard-response",293,849709,"0.0-12.0-1.65","NULL","81","Nein","Spanisch","20",NA,NA,NA,"uni","classesabroad","immersion","","20","34 Jahren","biene.wav","biene","biene_buehne","biene","buehne",1,"y/i","ns"
"90gm","1481","pics/scaled/miete_mitte.jpg","NULL","image-keyboard-response",297,855012,"0.0-12.0-1.67","NULL","81","Nein","Spanisch","20",NA,NA,NA,"uni","classesabroad","immersion","","20","34 Jahren","mitte.wav","mitte","miete_mitte","mitte","miete",1,"i/I","ns"
"90gm","2169","pics/scaled/bluten_blueten.jpg","NULL","image-keyboard-response",299,858540,"0.0-12.0-1.68","NULL","80","Nein","Spanisch","20",NA,NA,NA,"uni","classesabroad","immersion","","20","34 Jahren","bluten.wav","bluten","bluten_blueten","blueten","bluten",1,"y/u","ns"
"90gm","696","pics/scaled/tuer_tour.jpg","NULL","image-keyboard-response",301,860497,"0.0-12.0-1.69","NULL","81","Nein","Spanisch","20",NA,NA,NA,"uni","classesabroad","immersion","","20","34 Jahren","tour.wav","tour","tuer_tour","tour","tuer",1,"y/u","ns"
"90gm","971","pics/scaled/tier_tour.jpg","NULL","image-keyboard-response",307,867391,"0.0-12.0-1.72","NULL","81","Nein","Spanisch","20",NA,NA,NA,"uni","classesabroad","immersion","","20","34 Jahren","tier.wav","tier","tier_tour","tier","tour",1,"i/u","ns"
"90gm","711","pics/scaled/tier_tour.jpg","NULL","image-keyboard-response",309,869371,"0.0-12.0-1.73","NULL","80","Nein","Spanisch","20",NA,NA,NA,"uni","classesabroad","immersion","","20","34 Jahren","tour.wav","tour","tier_tour","tier","tour",1,"i/u","ns"
"90gm","537","pics/scaled/stiel_stuhl.jpg","NULL","image-keyboard-response",311,871456,"0.0-12.0-1.74","NULL","81","Nein","Spanisch","20",NA,NA,NA,"uni","classesabroad","immersion","","20","34 Jahren","stiel.wav","stiel","stiel_stuhl","stiel","stuhl",1,"i/u","ns"
"90gm","470","pics/scaled/tuer_tour.jpg","NULL","image-keyboard-response",315,874942,"0.0-12.0-1.76","NULL","80","Nein","Spanisch","20",NA,NA,NA,"uni","classesabroad","immersion","","20","34 Jahren","tuer.wav","tuer","tuer_tour","tour","tuer",1,"y/u","ns"
"90gm","821","pics/scaled/biene_buehne.png","NULL","image-keyboard-response",319,879922,"0.0-12.0-1.78","NULL","81","Nein","Spanisch","20",NA,NA,NA,"uni","classesabroad","immersion","","20","34 Jahren","biene.wav","biene","biene_buehne","biene","buehne",1,"y/i","ns"
"90gm","466","pics/scaled/kiel_kuehl.jpg","NULL","image-keyboard-response",321,881778,"0.0-12.0-1.79","NULL","81","Nein","Spanisch","20",NA,NA,NA,"uni","classesabroad","immersion","","20","34 Jahren","kiel.wav","kiel","kiel_kuehl","kiel","kuehl",1,"y/i","ns"
"90gm","830","pics/scaled/bluten_blueten.jpg","NULL","image-keyboard-response",325,886120,"0.0-12.0-1.81","NULL","81","Nein","Spanisch","20",NA,NA,NA,"uni","classesabroad","immersion","","20","34 Jahren","blueten.wav","blueten","bluten_blueten","blueten","bluten",1,"y/u","ns"
"90gm","652","pics/scaled/spielen_spuelen.jpg","NULL","image-keyboard-response",327,888412,"0.0-12.0-1.82","NULL","80","Nein","Spanisch","20",NA,NA,NA,"uni","classesabroad","immersion","","20","34 Jahren","spuelen2.wav","spuelen","spielen_spuelen","spielen","spuelen",1,"y/i","ns"
"90gm","350","pics/scaled/spielen_spulen.jpg","NULL","image-keyboard-response",329,890431,"0.0-12.0-1.83","NULL","80","Nein","Spanisch","20",NA,NA,NA,"uni","classesabroad","immersion","","20","34 Jahren","spielen2.wav","spielen","spielen_spulen","spulen","spielen",1,"i/u","ns"
"90gm","449","pics/scaled/kiel_kuehl.jpg","NULL","image-keyboard-response",333,894640,"0.0-12.0-1.85","NULL","81","Nein","Spanisch","20",NA,NA,NA,"uni","classesabroad","immersion","","20","34 Jahren","kiel.wav","kiel","kiel_kuehl","kiel","kuehl",1,"y/i","ns"
"90gm","565","pics/scaled/still_stiel.jpg","NULL","image-keyboard-response",335,896755,"0.0-12.0-1.86","NULL","80","Nein","Spanisch","20",NA,NA,NA,"uni","classesabroad","immersion","","20","34 Jahren","stiel.wav","stiel","still_stiel","still","stiel",1,"i/I","ns"
"90gm","1155","pics/scaled/tuer_tour.jpg","NULL","image-keyboard-response",337,899176,"0.0-12.0-1.87","NULL","81","Nein","Spanisch","20",NA,NA,NA,"uni","classesabroad","immersion","","20","34 Jahren","tour.wav","tour","tuer_tour","tour","tuer",1,"y/u","ns"
"90gm","932","pics/scaled/schief_schiff.jpg","NULL","image-keyboard-response",339,901444,"0.0-12.0-1.88","NULL","80","Nein","Spanisch","20",NA,NA,NA,"uni","classesabroad","immersion","","20","34 Jahren","schiff.wav","schiff","schief_schiff","schief","schiff",1,"i/I","ns"
"90gm","2208","pics/scaled/bluten_blueten.jpg","NULL","image-keyboard-response",341,905018,"0.0-12.0-1.89","NULL","81","Nein","Spanisch","20",NA,NA,NA,"uni","classesabroad","immersion","","20","34 Jahren","blueten.wav","blueten","bluten_blueten","blueten","bluten",1,"y/u","ns"
"90gm","527","pics/scaled/spielen_spuelen.jpg","NULL","image-keyboard-response",343,907186,"0.0-12.0-1.90","NULL","80","Nein","Spanisch","20",NA,NA,NA,"uni","classesabroad","immersion","","20","34 Jahren","spuelen2.wav","spuelen","spielen_spuelen","spielen","spuelen",1,"y/i","ns"
"90gm","370","pics/scaled/biene_buehne.png","NULL","image-keyboard-response",345,908890,"0.0-12.0-1.91","NULL","81","Nein","Spanisch","20",NA,NA,NA,"uni","classesabroad","immersion","","20","34 Jahren","biene.wav","biene","biene_buehne","biene","buehne",1,"y/i","ns"
"90gm","398","pics/scaled/stiel_stuhl.jpg","NULL","image-keyboard-response",347,910839,"0.0-12.0-1.92","NULL","80","Nein","Spanisch","20",NA,NA,NA,"uni","classesabroad","immersion","","20","34 Jahren","stuhl.wav","stuhl","stiel_stuhl","stiel","stuhl",1,"i/u","ns"
"90gm","1187","pics/scaled/miete_mitte.jpg","NULL","image-keyboard-response",349,913345,"0.0-12.0-1.93","NULL","81","Nein","Spanisch","20",NA,NA,NA,"uni","classesabroad","immersion","","20","34 Jahren","mitte.wav","mitte","miete_mitte","mitte","miete",1,"i/I","ns"
"90gm","1071","pics/scaled/kiel_kuehl.jpg","NULL","image-keyboard-response",355,920581,"0.0-12.0-1.96","NULL","80","Nein","Spanisch","20",NA,NA,NA,"uni","classesabroad","immersion","","20","34 Jahren","kuehl.wav","kuehl","kiel_kuehl","kiel","kuehl",1,"y/i","ns"
"90gm","1947","pics/scaled/still_stiel.jpg","NULL","image-keyboard-response",357,923985,"0.0-12.0-1.97","NULL","81","Nein","Spanisch","20",NA,NA,NA,"uni","classesabroad","immersion","","20","34 Jahren","still.wav","still","still_stiel","still","stiel",1,"i/I","ns"
"90gm","805","pics/scaled/tier_tour.jpg","NULL","image-keyboard-response",361,927935,"0.0-12.0-1.99","NULL","80","Nein","Spanisch","20",NA,NA,NA,"uni","classesabroad","immersion","","20","34 Jahren","tour.wav","tour","tier_tour","tier","tour",1,"i/u","ns"
"90gm","126","pics/scaled/spulen_spuelen.jpg","NULL","image-keyboard-response",367,935104,"0.0-12.0-1.102","NULL","80","Nein","Spanisch","20",NA,NA,NA,"uni","classesabroad","immersion","","20","34 Jahren","spuelen2.wav","spuelen","spulen_spuelen","spulen","spuelen",1,"y/u","ns"
"90gm","1232","pics/scaled/schief_schiff.jpg","NULL","image-keyboard-response",373,941262,"0.0-12.0-1.105","NULL","80","Nein","Spanisch","20",NA,NA,NA,"uni","classesabroad","immersion","","20","34 Jahren","schiff.wav","schiff","schief_schiff","schief","schiff",1,"i/I","ns"
"90gm","1389","pics/scaled/spielen_spulen.jpg","NULL","image-keyboard-response",383,952336,"0.0-12.0-1.110","NULL","81","Nein","Spanisch","20",NA,NA,NA,"uni","classesabroad","immersion","","20","34 Jahren","spulen.wav","spulen","spielen_spulen","spulen","spielen",1,"i/u","ns"
"90gm","304","pics/scaled/stiel_stuhl.jpg","NULL","image-keyboard-response",387,956663,"0.0-12.0-1.112","NULL","80","Nein","Spanisch","20",NA,NA,NA,"uni","classesabroad","immersion","","20","34 Jahren","stuhl.wav","stuhl","stiel_stuhl","stiel","stuhl",1,"i/u","ns"
"90gm","890","pics/scaled/tuer_tour.jpg","NULL","image-keyboard-response",389,958807,"0.0-12.0-1.113","NULL","81","Nein","Spanisch","20",NA,NA,NA,"uni","classesabroad","immersion","","20","34 Jahren","tour.wav","tour","tuer_tour","tour","tuer",1,"y/u","ns"
"90gm","406","pics/scaled/spielen_spulen.jpg","NULL","image-keyboard-response",391,960883,"0.0-12.0-1.114","NULL","81","Nein","Spanisch","20",NA,NA,NA,"uni","classesabroad","immersion","","20","34 Jahren","spulen.wav","spulen","spielen_spulen","spulen","spielen",1,"i/u","ns"
"90gm","440","pics/scaled/spulen_spuelen.jpg","NULL","image-keyboard-response",393,962967,"0.0-12.0-1.115","NULL","80","Nein","Spanisch","20",NA,NA,NA,"uni","classesabroad","immersion","","20","34 Jahren","spuelen2.wav","spuelen","spulen_spuelen","spulen","spuelen",1,"y/u","ns"
"90gm","1350","pics/scaled/still_stiel.jpg","NULL","image-keyboard-response",397,967636,"0.0-12.0-1.117","NULL","81","Nein","Spanisch","20",NA,NA,NA,"uni","classesabroad","immersion","","20","34 Jahren","still.wav","still","still_stiel","still","stiel",1,"i/I","ns"
"90gm","159","pics/scaled/spielen_spulen.jpg","NULL","image-keyboard-response",399,969451,"0.0-12.0-1.118","NULL","80","Nein","Spanisch","20",NA,NA,NA,"uni","classesabroad","immersion","","20","34 Jahren","spielen2.wav","spielen","spielen_spulen","spulen","spielen",1,"i/u","ns"
"91u3","1404.2999999523","pics/scaled/bluten_blueten.jpg","NULL","image-keyboard-response",164,877098,"0.0-12.0-1.1","NULL","80","Nein","Spanisch","4 oder 5","classeshome",NA,"lgeschool",NA,NA,NA,"An der Schule","21","3","bluten.wav","bluten","bluten_blueten","blueten","bluten",1,"y/u","ns"
"91u3","1442.6000000238","pics/scaled/tuer_tour.jpg","NULL","image-keyboard-response",166,879793,"0.0-12.0-1.2","NULL","81","Nein","Spanisch","4 oder 5","classeshome",NA,"lgeschool",NA,NA,NA,"An der Schule","21","3","tour.wav","tour","tuer_tour","tour","tuer",1,"y/u","ns"
"91u3","592.5","pics/scaled/miete_mitte.jpg","NULL","image-keyboard-response",174,888062,"0.0-12.0-1.6","NULL","80","Nein","Spanisch","4 oder 5","classeshome",NA,"lgeschool",NA,NA,NA,"An der Schule","21","3","mitte.wav","mitte","miete_mitte","mitte","miete",0,"i/I","ns"
"91u3","618.60000002384","pics/scaled/kiel_kuehl.jpg","NULL","image-keyboard-response",176,890028,"0.0-12.0-1.7","NULL","81","Nein","Spanisch","4 oder 5","classeshome",NA,"lgeschool",NA,NA,NA,"An der Schule","21","3","kiel.wav","kiel","kiel_kuehl","kiel","kuehl",1,"y/i","ns"
"91u3","1463.8999999762","pics/scaled/tuer_tour.jpg","NULL","image-keyboard-response",178,892752,"0.0-12.0-1.8","NULL","81","Nein","Spanisch","4 oder 5","classeshome",NA,"lgeschool",NA,NA,NA,"An der Schule","21","3","tour.wav","tour","tuer_tour","tour","tuer",1,"y/u","ns"
"91u3","289.79999995232","pics/scaled/spielen_spuelen.jpg","NULL","image-keyboard-response",182,896816,"0.0-12.0-1.10","NULL","80","Nein","Spanisch","4 oder 5","classeshome",NA,"lgeschool",NA,NA,NA,"An der Schule","21","3","spuelen2.wav","spuelen","spielen_spuelen","spielen","spuelen",1,"y/i","ns"
"91u3","247","pics/scaled/stiel_stuhl.jpg","NULL","image-keyboard-response",184,898586,"0.0-12.0-1.11","NULL","80","Nein","Spanisch","4 oder 5","classeshome",NA,"lgeschool",NA,NA,NA,"An der Schule","21","3","stuhl.wav","stuhl","stiel_stuhl","stiel","stuhl",1,"i/u","ns"
"91u3","4018","pics/scaled/biene_buehne.png","NULL","image-keyboard-response",186,903903,"0.0-12.0-1.12","NULL","81","Nein","Spanisch","4 oder 5","classeshome",NA,"lgeschool",NA,NA,NA,"An der Schule","21","3","biene.wav","biene","biene_buehne","biene","buehne",1,"y/i","ns"
"91u3","2757.6000000238","pics/scaled/stiel_stuhl.jpg","NULL","image-keyboard-response",192,919261,"0.0-12.0-1.15","NULL","80","Nein","Spanisch","4 oder 5","classeshome",NA,"lgeschool",NA,NA,NA,"An der Schule","21","3","stiel.wav","stiel","stiel_stuhl","stiel","stuhl",0,"i/u","ns"
"91u3","2088.8999999762","pics/scaled/still_stiel.jpg","NULL","image-keyboard-response",194,922795,"0.0-12.0-1.16","NULL","81","Nein","Spanisch","4 oder 5","classeshome",NA,"lgeschool",NA,NA,NA,"An der Schule","21","3","still.wav","still","still_stiel","still","stiel",1,"i/I","ns"
"91u3","467.5","pics/scaled/tier_tour.jpg","NULL","image-keyboard-response",196,924500,"0.0-12.0-1.17","NULL","81","Nein","Spanisch","4 oder 5","classeshome",NA,"lgeschool",NA,NA,NA,"An der Schule","21","3","tier.wav","tier","tier_tour","tier","tour",1,"i/u","ns"
"91u3","134.39999997616","pics/scaled/spielen_spulen.jpg","NULL","image-keyboard-response",200,928159,"0.0-12.0-1.19","NULL","80","Nein","Spanisch","4 oder 5","classeshome",NA,"lgeschool",NA,NA,NA,"An der Schule","21","3","spielen2.wav","spielen","spielen_spulen","spulen","spielen",1,"i/u","ns"
"91u3","339.60000002384","pics/scaled/tier_tour.jpg","NULL","image-keyboard-response",202,929740,"0.0-12.0-1.20","NULL","81","Nein","Spanisch","4 oder 5","classeshome",NA,"lgeschool",NA,NA,NA,"An der Schule","21","3","tier.wav","tier","tier_tour","tier","tour",1,"i/u","ns"
"91u3","290.20000004768","pics/scaled/schief_schiff.jpg","NULL","image-keyboard-response",204,931354,"0.0-12.0-1.21","NULL","80","Nein","Spanisch","4 oder 5","classeshome",NA,"lgeschool",NA,NA,NA,"An der Schule","21","3","schiff.wav","schiff","schief_schiff","schief","schiff",1,"i/I","ns"
"91u3","2263.2999999523","pics/scaled/tuer_tour.jpg","NULL","image-keyboard-response",212,940964,"0.0-12.0-1.25","NULL","81","Nein","Spanisch","4 oder 5","classeshome",NA,"lgeschool",NA,NA,NA,"An der Schule","21","3","tour.wav","tour","tuer_tour","tour","tuer",1,"y/u","ns"
"91u3","2005","pics/scaled/still_stiel.jpg","NULL","image-keyboard-response",216,946305,"0.0-12.0-1.27","NULL","81","Nein","Spanisch","4 oder 5","classeshome",NA,"lgeschool",NA,NA,NA,"An der Schule","21","3","still.wav","still","still_stiel","still","stiel",1,"i/I","ns"
"91u3","329.70000004768","pics/scaled/bluten_blueten.jpg","NULL","image-keyboard-response",218,947981,"0.0-12.0-1.28","NULL","80","Nein","Spanisch","4 oder 5","classeshome",NA,"lgeschool",NA,NA,NA,"An der Schule","21","3","blueten.wav","blueten","bluten_blueten","blueten","bluten",0,"y/u","ns"
"91u3","2865.1000000238","pics/scaled/biene_buehne.png","NULL","image-keyboard-response",220,952147,"0.0-12.0-1.29","NULL","80","Nein","Spanisch","4 oder 5","classeshome",NA,"lgeschool",NA,NA,NA,"An der Schule","21","3","buehne.wav","buehne","biene_buehne","biene","buehne",1,"y/i","ns"
"91u3","897.20000004768","pics/scaled/schief_schiff.jpg","NULL","image-keyboard-response",224,956025,"0.0-12.0-1.31","NULL","80","Nein","Spanisch","4 oder 5","classeshome",NA,"lgeschool",NA,NA,NA,"An der Schule","21","3","schiff.wav","schiff","schief_schiff","schief","schiff",1,"i/I","ns"
"91u3","122.20000004768","pics/scaled/spulen_spuelen.jpg","NULL","image-keyboard-response",226,957788,"0.0-12.0-1.32","NULL","80","Nein","Spanisch","4 oder 5","classeshome",NA,"lgeschool",NA,NA,NA,"An der Schule","21","3","spuelen2.wav","spuelen","spulen_spuelen","spulen","spuelen",1,"y/u","ns"
"91u3","1267.8999999762","pics/scaled/spielen_spuelen.jpg","NULL","image-keyboard-response",232,968427,"0.0-12.0-1.35","NULL","80","Nein","Spanisch","4 oder 5","classeshome",NA,"lgeschool",NA,NA,NA,"An der Schule","21","3","spuelen2.wav","spuelen","spielen_spuelen","spielen","spuelen",1,"y/i","ns"
"91u3","644.69999992847","pics/scaled/spulen_spuelen.jpg","NULL","image-keyboard-response",234,970705,"0.0-12.0-1.36","NULL","80","Nein","Spanisch","4 oder 5","classeshome",NA,"lgeschool",NA,NA,NA,"An der Schule","21","3","spuelen2.wav","spuelen","spulen_spuelen","spulen","spuelen",1,"y/u","ns"
"91u3","710.5","pics/scaled/schief_schiff.jpg","NULL","image-keyboard-response",240,977587,"0.0-12.0-1.39","NULL","80","Nein","Spanisch","4 oder 5","classeshome",NA,"lgeschool",NA,NA,NA,"An der Schule","21","3","schief.wav","schief","schief_schiff","schief","schiff",0,"i/I","ns"
"91u3","1653.1000000238","pics/scaled/biene_buehne.png","NULL","image-keyboard-response",242,980545,"0.0-12.0-1.40","NULL","80","Nein","Spanisch","4 oder 5","classeshome",NA,"lgeschool",NA,NA,NA,"An der Schule","21","3","buehne.wav","buehne","biene_buehne","biene","buehne",1,"y/i","ns"
"91u3","1649.7999999523","pics/scaled/spulen_spuelen.jpg","NULL","image-keyboard-response",248,988872,"0.0-12.0-1.43","NULL","81","Nein","Spanisch","4 oder 5","classeshome",NA,"lgeschool",NA,NA,NA,"An der Schule","21","3","spulen.wav","spulen","spulen_spuelen","spulen","spuelen",1,"y/u","ns"
"91u3","NULL","pics/scaled/miete_mitte.jpg","NULL","image-keyboard-response",252,997483,"0.0-12.0-1.45","NULL","NULL","Nein","Spanisch","4 oder 5","classeshome",NA,"lgeschool",NA,NA,NA,"An der Schule","21","3","mitte.wav","mitte","miete_mitte","mitte","miete",0,"i/I","ns"
"91u3","45.600000023842","pics/scaled/spulen_spuelen.jpg","NULL","image-keyboard-response",254,999168,"0.0-12.0-1.46","NULL","80","Nein","Spanisch","4 oder 5","classeshome",NA,"lgeschool",NA,NA,NA,"An der Schule","21","3","spuelen2.wav","spuelen","spulen_spuelen","spulen","spuelen",1,"y/u","ns"
"91u3","341.29999995232","pics/scaled/kiel_kuehl.jpg","NULL","image-keyboard-response",258,1002741,"0.0-12.0-1.48","NULL","81","Nein","Spanisch","4 oder 5","classeshome",NA,"lgeschool",NA,NA,NA,"An der Schule","21","3","kiel.wav","kiel","kiel_kuehl","kiel","kuehl",1,"y/i","ns"
"91u3","352.69999992847","pics/scaled/tuer_tour.jpg","NULL","image-keyboard-response",260,1004342,"0.0-12.0-1.49","NULL","80","Nein","Spanisch","4 oder 5","classeshome",NA,"lgeschool",NA,NA,NA,"An der Schule","21","3","tuer.wav","tuer","tuer_tour","tour","tuer",1,"y/u","ns"
"91u3","863.90000009537","pics/scaled/schief_schiff.jpg","NULL","image-keyboard-response",266,1011639,"0.0-12.0-1.52","NULL","80","Nein","Spanisch","4 oder 5","classeshome",NA,"lgeschool",NA,NA,NA,"An der Schule","21","3","schief.wav","schief","schief_schiff","schief","schiff",0,"i/I","ns"
"91u3","132.80000007153","pics/scaled/bluten_blueten.jpg","NULL","image-keyboard-response",268,1013126,"0.0-12.0-1.53","NULL","80","Nein","Spanisch","4 oder 5","classeshome",NA,"lgeschool",NA,NA,NA,"An der Schule","21","3","blueten.wav","blueten","bluten_blueten","blueten","bluten",0,"y/u","ns"
"91u3","204.90000009537","pics/scaled/stiel_stuhl.jpg","NULL","image-keyboard-response",270,1014862,"0.0-12.0-1.54","NULL","81","Nein","Spanisch","4 oder 5","classeshome",NA,"lgeschool",NA,NA,NA,"An der Schule","21","3","stuhl.wav","stuhl","stiel_stuhl","stiel","stuhl",0,"i/u","ns"
"91u3","258.10000002384","pics/scaled/kiel_kuehl.jpg","NULL","image-keyboard-response",272,1016472,"0.0-12.0-1.55","NULL","81","Nein","Spanisch","4 oder 5","classeshome",NA,"lgeschool",NA,NA,NA,"An der Schule","21","3","kiel.wav","kiel","kiel_kuehl","kiel","kuehl",1,"y/i","ns"
"91u3","1870.1999999285","pics/scaled/kiel_kuehl.jpg","NULL","image-keyboard-response",278,1024021,"0.0-12.0-1.58","NULL","80","Nein","Spanisch","4 oder 5","classeshome",NA,"lgeschool",NA,NA,NA,"An der Schule","21","3","kuehl.wav","kuehl","kiel_kuehl","kiel","kuehl",1,"y/i","ns"
"91u3","510.70000004768","pics/scaled/biene_buehne.png","NULL","image-keyboard-response",280,1025861,"0.0-12.0-1.59","NULL","80","Nein","Spanisch","4 oder 5","classeshome",NA,"lgeschool",NA,NA,NA,"An der Schule","21","3","buehne.wav","buehne","biene_buehne","biene","buehne",1,"y/i","ns"
"91u3","231.69999992847","pics/scaled/still_stiel.jpg","NULL","image-keyboard-response",282,1027609,"0.0-12.0-1.60","NULL","81","Nein","Spanisch","4 oder 5","classeshome",NA,"lgeschool",NA,NA,NA,"An der Schule","21","3","stiel.wav","stiel","still_stiel","still","stiel",0,"i/I","ns"
"91u3","557.60000002384","pics/scaled/tuer_tour.jpg","NULL","image-keyboard-response",284,1029417,"0.0-12.0-1.61","NULL","80","Nein","Spanisch","4 oder 5","classeshome",NA,"lgeschool",NA,NA,NA,"An der Schule","21","3","tuer.wav","tuer","tuer_tour","tour","tuer",1,"y/u","ns"
"91u3","493.39999997616","pics/scaled/kiel_kuehl.jpg","NULL","image-keyboard-response",286,1031262,"0.0-12.0-1.62","NULL","80","Nein","Spanisch","4 oder 5","classeshome",NA,"lgeschool",NA,NA,NA,"An der Schule","21","3","kuehl.wav","kuehl","kiel_kuehl","kiel","kuehl",1,"y/i","ns"
"91u3","141.10000002384","pics/scaled/kiel_kuehl.jpg","NULL","image-keyboard-response",288,1032755,"0.0-12.0-1.63","NULL","80","Nein","Spanisch","4 oder 5","classeshome",NA,"lgeschool",NA,NA,NA,"An der Schule","21","3","kuehl.wav","kuehl","kiel_kuehl","kiel","kuehl",1,"y/i","ns"
"91u3","731.79999995232","pics/scaled/biene_buehne.png","NULL","image-keyboard-response",296,1040300,"0.0-12.0-1.67","NULL","81","Nein","Spanisch","4 oder 5","classeshome",NA,"lgeschool",NA,NA,NA,"An der Schule","21","3","biene.wav","biene","biene_buehne","biene","buehne",1,"y/i","ns"
"91u3","531.10000002384","pics/scaled/bluten_blueten.jpg","NULL","image-keyboard-response",300,1043855,"0.0-12.0-1.69","NULL","80","Nein","Spanisch","4 oder 5","classeshome",NA,"lgeschool",NA,NA,NA,"An der Schule","21","3","bluten.wav","bluten","bluten_blueten","blueten","bluten",1,"y/u","ns"
"91u3","1002.5","pics/scaled/tuer_tour.jpg","NULL","image-keyboard-response",304,1048465,"0.0-12.0-1.71","NULL","80","Nein","Spanisch","4 oder 5","classeshome",NA,"lgeschool",NA,NA,NA,"An der Schule","21","3","tuer.wav","tuer","tuer_tour","tour","tuer",1,"y/u","ns"
"91u3","2378","pics/scaled/stiel_stuhl.jpg","NULL","image-keyboard-response",306,1052369,"0.0-12.0-1.72","NULL","80","Nein","Spanisch","4 oder 5","classeshome",NA,"lgeschool",NA,NA,NA,"An der Schule","21","3","stiel.wav","stiel","stiel_stuhl","stiel","stuhl",0,"i/u","ns"
"91u3","2178.6999999285","pics/scaled/spielen_spuelen.jpg","NULL","image-keyboard-response",308,1056180,"0.0-12.0-1.73","NULL","81","Nein","Spanisch","4 oder 5","classeshome",NA,"lgeschool",NA,NA,NA,"An der Schule","21","3","spielen.wav","spielen","spielen_spuelen","spielen","spuelen",1,"y/i","ns"
"91u3","620.89999997616","pics/scaled/miete_mitte.jpg","NULL","image-keyboard-response",312,1060510,"0.0-12.0-1.75","NULL","80","Nein","Spanisch","4 oder 5","classeshome",NA,"lgeschool",NA,NA,NA,"An der Schule","21","3","miete.wav","miete","miete_mitte","mitte","miete",1,"i/I","ns"
"91u3","1262.6000000238","pics/scaled/tier_tour.jpg","NULL","image-keyboard-response",314,1063029,"0.0-12.0-1.76","NULL","80","Nein","Spanisch","4 oder 5","classeshome",NA,"lgeschool",NA,NA,NA,"An der Schule","21","3","tour.wav","tour","tier_tour","tier","tour",1,"i/u","ns"
"91u3","1290.3999999762","pics/scaled/bluten_blueten.jpg","NULL","image-keyboard-response",316,1065649,"0.0-12.0-1.77","NULL","80","Nein","Spanisch","4 oder 5","classeshome",NA,"lgeschool",NA,NA,NA,"An der Schule","21","3","blueten.wav","blueten","bluten_blueten","blueten","bluten",0,"y/u","ns"
"91u3","2246.6000000238","pics/scaled/miete_mitte.jpg","NULL","image-keyboard-response",318,1069293,"0.0-12.0-1.78","NULL","81","Nein","Spanisch","4 oder 5","classeshome",NA,"lgeschool",NA,NA,NA,"An der Schule","21","3","miete.wav","miete","miete_mitte","mitte","miete",0,"i/I","ns"
"91u3","809.89999997616","pics/scaled/spielen_spulen.jpg","NULL","image-keyboard-response",320,1071729,"0.0-12.0-1.79","NULL","80","Nein","Spanisch","4 oder 5","classeshome",NA,"lgeschool",NA,NA,NA,"An der Schule","21","3","spielen2.wav","spielen","spielen_spulen","spulen","spielen",1,"i/u","ns"
"91u3","345.79999995232","pics/scaled/spielen_spuelen.jpg","NULL","image-keyboard-response",322,1073706,"0.0-12.0-1.80","NULL","81","Nein","Spanisch","4 oder 5","classeshome",NA,"lgeschool",NA,NA,NA,"An der Schule","21","3","spielen.wav","spielen","spielen_spuelen","spielen","spuelen",1,"y/i","ns"
"91u3","474.19999992847","pics/scaled/stiel_stuhl.jpg","NULL","image-keyboard-response",324,1075702,"0.0-12.0-1.81","NULL","81","Nein","Spanisch","4 oder 5","classeshome",NA,"lgeschool",NA,NA,NA,"An der Schule","21","3","stiel.wav","stiel","stiel_stuhl","stiel","stuhl",1,"i/u","ns"
"91u3","353.70000004768","pics/scaled/spielen_spulen.jpg","NULL","image-keyboard-response",326,1077693,"0.0-12.0-1.82","NULL","81","Nein","Spanisch","4 oder 5","classeshome",NA,"lgeschool",NA,NA,NA,"An der Schule","21","3","spulen.wav","spulen","spielen_spulen","spulen","spielen",1,"i/u","ns"
"91u3","220.60000002384","pics/scaled/spielen_spulen.jpg","NULL","image-keyboard-response",328,1079555,"0.0-12.0-1.83","NULL","81","Nein","Spanisch","4 oder 5","classeshome",NA,"lgeschool",NA,NA,NA,"An der Schule","21","3","spulen.wav","spulen","spielen_spulen","spulen","spielen",1,"i/u","ns"
"91u3","320.10000002384","pics/scaled/spulen_spuelen.jpg","NULL","image-keyboard-response",332,1083409,"0.0-12.0-1.85","NULL","81","Nein","Spanisch","4 oder 5","classeshome",NA,"lgeschool",NA,NA,NA,"An der Schule","21","3","spulen.wav","spulen","spulen_spuelen","spulen","spuelen",1,"y/u","ns"
"91u3","1119.2999999523","pics/scaled/schief_schiff.jpg","NULL","image-keyboard-response",336,1087585,"0.0-12.0-1.87","NULL","80","Nein","Spanisch","4 oder 5","classeshome",NA,"lgeschool",NA,NA,NA,"An der Schule","21","3","schiff.wav","schiff","schief_schiff","schief","schiff",1,"i/I","ns"
"91u3","337.70000004768","pics/scaled/spulen_spuelen.jpg","NULL","image-keyboard-response",338,1089555,"0.0-12.0-1.88","NULL","81","Nein","Spanisch","4 oder 5","classeshome",NA,"lgeschool",NA,NA,NA,"An der Schule","21","3","spulen.wav","spulen","spulen_spuelen","spulen","spuelen",1,"y/u","ns"
"91u3","554","pics/scaled/tier_tour.jpg","NULL","image-keyboard-response",340,1091361,"0.0-12.0-1.89","NULL","80","Nein","Spanisch","4 oder 5","classeshome",NA,"lgeschool",NA,NA,NA,"An der Schule","21","3","tour.wav","tour","tier_tour","tier","tour",1,"i/u","ns"
"91u3","415.39999997616","pics/scaled/miete_mitte.jpg","NULL","image-keyboard-response",344,1095264,"0.0-12.0-1.91","NULL","80","Nein","Spanisch","4 oder 5","classeshome",NA,"lgeschool",NA,NA,NA,"An der Schule","21","3","miete.wav","miete","miete_mitte","mitte","miete",1,"i/I","ns"
"91u3","1806.5","pics/scaled/tier_tour.jpg","NULL","image-keyboard-response",348,1100635,"0.0-12.0-1.93","NULL","81","Nein","Spanisch","4 oder 5","classeshome",NA,"lgeschool",NA,NA,NA,"An der Schule","21","3","tier.wav","tier","tier_tour","tier","tour",1,"i/u","ns"
"91u3","81.599999904633","pics/scaled/schief_schiff.jpg","NULL","image-keyboard-response",350,1102175,"0.0-12.0-1.94","NULL","80","Nein","Spanisch","4 oder 5","classeshome",NA,"lgeschool",NA,NA,NA,"An der Schule","21","3","schief.wav","schief","schief_schiff","schief","schiff",0,"i/I","ns"
"91u3","389.70000004768","pics/scaled/miete_mitte.jpg","NULL","image-keyboard-response",354,1105597,"0.0-12.0-1.96","NULL","81","Nein","Spanisch","4 oder 5","classeshome",NA,"lgeschool",NA,NA,NA,"An der Schule","21","3","mitte.wav","mitte","miete_mitte","mitte","miete",1,"i/I","ns"
"91u3","215.10000002384","pics/scaled/stiel_stuhl.jpg","NULL","image-keyboard-response",360,1113497,"0.0-12.0-1.99","NULL","80","Nein","Spanisch","4 oder 5","classeshome",NA,"lgeschool",NA,NA,NA,"An der Schule","21","3","stuhl.wav","stuhl","stiel_stuhl","stiel","stuhl",1,"i/u","ns"
"91u3","231","pics/scaled/bluten_blueten.jpg","NULL","image-keyboard-response",364,1117736,"0.0-12.0-1.101","NULL","80","Nein","Spanisch","4 oder 5","classeshome",NA,"lgeschool",NA,NA,NA,"An der Schule","21","3","bluten.wav","bluten","bluten_blueten","blueten","bluten",1,"y/u","ns"
"91u3","741.60000002384","pics/scaled/spielen_spuelen.jpg","NULL","image-keyboard-response",366,1120092,"0.0-12.0-1.102","NULL","81","Nein","Spanisch","4 oder 5","classeshome",NA,"lgeschool",NA,NA,NA,"An der Schule","21","3","spielen.wav","spielen","spielen_spuelen","spielen","spuelen",1,"y/i","ns"
"91u3","2844","pics/scaled/still_stiel.jpg","NULL","image-keyboard-response",370,1126569,"0.0-12.0-1.104","NULL","80","Nein","Spanisch","4 oder 5","classeshome",NA,"lgeschool",NA,NA,NA,"An der Schule","21","3","still.wav","still","still_stiel","still","stiel",0,"i/I","ns"
"91u3","296.60000002384","pics/scaled/spielen_spulen.jpg","NULL","image-keyboard-response",372,1128512,"0.0-12.0-1.105","NULL","81","Nein","Spanisch","4 oder 5","classeshome",NA,"lgeschool",NA,NA,NA,"An der Schule","21","3","spulen.wav","spulen","spielen_spulen","spulen","spielen",1,"i/u","ns"
"91u3","1138.5","pics/scaled/still_stiel.jpg","NULL","image-keyboard-response",376,1133503,"0.0-12.0-1.107","NULL","80","Nein","Spanisch","4 oder 5","classeshome",NA,"lgeschool",NA,NA,NA,"An der Schule","21","3","stiel.wav","stiel","still_stiel","still","stiel",1,"i/I","ns"
"91u3","510.20000004768","pics/scaled/biene_buehne.png","NULL","image-keyboard-response",380,1136970,"0.0-12.0-1.109","NULL","81","Nein","Spanisch","4 oder 5","classeshome",NA,"lgeschool",NA,NA,NA,"An der Schule","21","3","biene.wav","biene","biene_buehne","biene","buehne",1,"y/i","ns"
"91u3","523.20000004768","pics/scaled/tier_tour.jpg","NULL","image-keyboard-response",382,1138743,"0.0-12.0-1.110","NULL","80","Nein","Spanisch","4 oder 5","classeshome",NA,"lgeschool",NA,NA,NA,"An der Schule","21","3","tour.wav","tour","tier_tour","tier","tour",1,"i/u","ns"
"91u3","47.5","pics/scaled/spielen_spulen.jpg","NULL","image-keyboard-response",394,1152125,"0.0-12.0-1.116","NULL","80","Nein","Spanisch","4 oder 5","classeshome",NA,"lgeschool",NA,NA,NA,"An der Schule","21","3","spielen2.wav","spielen","spielen_spulen","spulen","spielen",1,"i/u","ns"
"91u3","158.79999995232","pics/scaled/spielen_spuelen.jpg","NULL","image-keyboard-response",398,1155373,"0.0-12.0-1.118","NULL","80","Nein","Spanisch","4 oder 5","classeshome",NA,"lgeschool",NA,NA,NA,"An der Schule","21","3","spuelen2.wav","spuelen","spielen_spuelen","spielen","spuelen",1,"y/i","ns"
"91u3","247.5","pics/scaled/still_stiel.jpg","NULL","image-keyboard-response",400,1157146,"0.0-12.0-1.119","NULL","80","Nein","Spanisch","4 oder 5","classeshome",NA,"lgeschool",NA,NA,NA,"An der Schule","21","3","stiel.wav","stiel","still_stiel","still","stiel",1,"i/I","ns"
"e3x7","563","pics/scaled/spulen_spuelen.jpg","NULL","image-keyboard-response",167,651408,"0.0-12.0-1.2","NULL","80","Nein","Spanisch","27",NA,"selflearn",NA,NA,NA,"immersion","Lernen durch Immersion","27","8","spuelen2.wav","spuelen","spulen_spuelen","spulen","spuelen",1,"y/u","ns"
"e3x7","1834","pics/scaled/spulen_spuelen.jpg","NULL","image-keyboard-response",169,654874,"0.0-12.0-1.3","NULL","80","Nein","Spanisch","27",NA,"selflearn",NA,NA,NA,"immersion","Lernen durch Immersion","27","8","spuelen2.wav","spuelen","spulen_spuelen","spulen","spuelen",1,"y/u","ns"
"e3x7","831","pics/scaled/spielen_spuelen.jpg","NULL","image-keyboard-response",171,657333,"0.0-12.0-1.4","NULL","81","Nein","Spanisch","27",NA,"selflearn",NA,NA,NA,"immersion","Lernen durch Immersion","27","8","spielen.wav","spielen","spielen_spuelen","spielen","spuelen",1,"y/i","ns"
"e3x7","1937","pics/scaled/bluten_blueten.jpg","NULL","image-keyboard-response",177,666588,"0.0-12.0-1.7","NULL","80","Nein","Spanisch","27",NA,"selflearn",NA,NA,NA,"immersion","Lernen durch Immersion","27","8","bluten.wav","bluten","bluten_blueten","blueten","bluten",1,"y/u","ns"
"e3x7","3090","pics/scaled/schief_schiff.jpg","NULL","image-keyboard-response",181,674010,"0.0-12.0-1.9","NULL","80","Nein","Spanisch","27",NA,"selflearn",NA,NA,NA,"immersion","Lernen durch Immersion","27","8","schief.wav","schief","schief_schiff","schief","schiff",0,"i/I","ns"
"e3x7","832","pics/scaled/spielen_spulen.jpg","NULL","image-keyboard-response",183,676491,"0.0-12.0-1.10","NULL","80","Nein","Spanisch","27",NA,"selflearn",NA,NA,NA,"immersion","Lernen durch Immersion","27","8","spielen2.wav","spielen","spielen_spulen","spulen","spielen",1,"i/u","ns"
"e3x7","4156","pics/scaled/schief_schiff.jpg","NULL","image-keyboard-response",185,682122,"0.0-12.0-1.11","NULL","80","Nein","Spanisch","27",NA,"selflearn",NA,NA,NA,"immersion","Lernen durch Immersion","27","8","schief.wav","schief","schief_schiff","schief","schiff",0,"i/I","ns"
"e3x7","804","pics/scaled/spulen_spuelen.jpg","NULL","image-keyboard-response",187,684552,"0.0-12.0-1.12","NULL","80","Nein","Spanisch","27",NA,"selflearn",NA,NA,NA,"immersion","Lernen durch Immersion","27","8","spuelen2.wav","spuelen","spulen_spuelen","spulen","spuelen",1,"y/u","ns"
"e3x7","NULL","pics/scaled/spulen_spuelen.jpg","NULL","image-keyboard-response",193,697796,"0.0-12.0-1.15","NULL","NULL","Nein","Spanisch","27",NA,"selflearn",NA,NA,NA,"immersion","Lernen durch Immersion","27","8","spulen.wav","spulen","spulen_spuelen","spulen","spuelen",0,"y/u","ns"
"e3x7","2400","pics/scaled/miete_mitte.jpg","NULL","image-keyboard-response",195,701498,"0.0-12.0-1.16","NULL","81","Nein","Spanisch","27",NA,"selflearn",NA,NA,NA,"immersion","Lernen durch Immersion","27","8","mitte.wav","mitte","miete_mitte","mitte","miete",1,"i/I","ns"
"e3x7","1075","pics/scaled/biene_buehne.png","NULL","image-keyboard-response",197,703889,"0.0-12.0-1.17","NULL","80","Nein","Spanisch","27",NA,"selflearn",NA,NA,NA,"immersion","Lernen durch Immersion","27","8","buehne.wav","buehne","biene_buehne","biene","buehne",1,"y/i","ns"
"e3x7","660","pics/scaled/spielen_spuelen.jpg","NULL","image-keyboard-response",199,706178,"0.0-12.0-1.18","NULL","80","Nein","Spanisch","27",NA,"selflearn",NA,NA,NA,"immersion","Lernen durch Immersion","27","8","spuelen2.wav","spuelen","spielen_spuelen","spielen","spuelen",1,"y/i","ns"
"e3x7","1845","pics/scaled/tuer_tour.jpg","NULL","image-keyboard-response",201,709267,"0.0-12.0-1.19","NULL","80","Nein","Spanisch","27",NA,"selflearn",NA,NA,NA,"immersion","Lernen durch Immersion","27","8","tour.wav","tour","tuer_tour","tour","tuer",0,"y/u","ns"
"e3x7","1586","pics/scaled/still_stiel.jpg","NULL","image-keyboard-response",203,712294,"0.0-12.0-1.20","NULL","81","Nein","Spanisch","27",NA,"selflearn",NA,NA,NA,"immersion","Lernen durch Immersion","27","8","still.wav","still","still_stiel","still","stiel",1,"i/I","ns"
"e3x7","1133","pics/scaled/bluten_blueten.jpg","NULL","image-keyboard-response",207,717147,"0.0-12.0-1.22","NULL","81","Nein","Spanisch","27",NA,"selflearn",NA,NA,NA,"immersion","Lernen durch Immersion","27","8","bluten.wav","bluten","bluten_blueten","blueten","bluten",0,"y/u","ns"
"e3x7","2703","pics/scaled/kiel_kuehl.jpg","NULL","image-keyboard-response",215,728482,"0.0-12.0-1.26","NULL","80","Nein","Spanisch","27",NA,"selflearn",NA,NA,NA,"immersion","Lernen durch Immersion","27","8","kuehl.wav","kuehl","kiel_kuehl","kiel","kuehl",1,"y/i","ns"
"e3x7","2295","pics/scaled/still_stiel.jpg","NULL","image-keyboard-response",219,735107,"0.0-12.0-1.28","NULL","81","Nein","Spanisch","27",NA,"selflearn",NA,NA,NA,"immersion","Lernen durch Immersion","27","8","still.wav","still","still_stiel","still","stiel",1,"i/I","ns"
"e3x7","2060","pics/scaled/kiel_kuehl.jpg","NULL","image-keyboard-response",225,743859,"0.0-12.0-1.31","NULL","81","Nein","Spanisch","27",NA,"selflearn",NA,NA,NA,"immersion","Lernen durch Immersion","27","8","kiel.wav","kiel","kiel_kuehl","kiel","kuehl",1,"y/i","ns"
"e3x7","3477","pics/scaled/tuer_tour.jpg","NULL","image-keyboard-response",233,756516,"0.0-12.0-1.35","NULL","81","Nein","Spanisch","27",NA,"selflearn",NA,NA,NA,"immersion","Lernen durch Immersion","27","8","tour.wav","tour","tuer_tour","tour","tuer",1,"y/u","ns"
"e3x7","857","pics/scaled/stiel_stuhl.jpg","NULL","image-keyboard-response",235,758913,"0.0-12.0-1.36","NULL","80","Nein","Spanisch","27",NA,"selflearn",NA,NA,NA,"immersion","Lernen durch Immersion","27","8","stuhl.wav","stuhl","stiel_stuhl","stiel","stuhl",1,"i/u","ns"
"e3x7","3707","pics/scaled/bluten_blueten.jpg","NULL","image-keyboard-response",239,766127,"0.0-12.0-1.38","NULL","80","Nein","Spanisch","27",NA,"selflearn",NA,NA,NA,"immersion","Lernen durch Immersion","27","8","blueten.wav","blueten","bluten_blueten","blueten","bluten",0,"y/u","ns"
"e3x7","2308","pics/scaled/tier_tour.jpg","NULL","image-keyboard-response",243,771626,"0.0-12.0-1.40","NULL","80","Nein","Spanisch","27",NA,"selflearn",NA,NA,NA,"immersion","Lernen durch Immersion","27","8","tour.wav","tour","tier_tour","tier","tour",1,"i/u","ns"
"e3x7","1357","pics/scaled/miete_mitte.jpg","NULL","image-keyboard-response",245,774436,"0.0-12.0-1.41","NULL","80","Nein","Spanisch","27",NA,"selflearn",NA,NA,NA,"immersion","Lernen durch Immersion","27","8","miete.wav","miete","miete_mitte","mitte","miete",1,"i/I","ns"
"e3x7","2076","pics/scaled/spielen_spulen.jpg","NULL","image-keyboard-response",247,778162,"0.0-12.0-1.42","NULL","80","Nein","Spanisch","27",NA,"selflearn",NA,NA,NA,"immersion","Lernen durch Immersion","27","8","spielen2.wav","spielen","spielen_spulen","spulen","spielen",1,"i/u","ns"
"e3x7","2196","pics/scaled/stiel_stuhl.jpg","NULL","image-keyboard-response",249,781892,"0.0-12.0-1.43","NULL","81","Nein","Spanisch","27",NA,"selflearn",NA,NA,NA,"immersion","Lernen durch Immersion","27","8","stiel.wav","stiel","stiel_stuhl","stiel","stuhl",1,"i/u","ns"
"e3x7","2792","pics/scaled/stiel_stuhl.jpg","NULL","image-keyboard-response",251,786307,"0.0-12.0-1.44","NULL","80","Nein","Spanisch","27",NA,"selflearn",NA,NA,NA,"immersion","Lernen durch Immersion","27","8","stuhl.wav","stuhl","stiel_stuhl","stiel","stuhl",1,"i/u","ns"
"e3x7","2841","pics/scaled/still_stiel.jpg","NULL","image-keyboard-response",253,790676,"0.0-12.0-1.45","NULL","80","Nein","Spanisch","27",NA,"selflearn",NA,NA,NA,"immersion","Lernen durch Immersion","27","8","stiel.wav","stiel","still_stiel","still","stiel",1,"i/I","ns"
"e3x7","698","pics/scaled/spielen_spuelen.jpg","NULL","image-keyboard-response",257,795510,"0.0-12.0-1.47","NULL","81","Nein","Spanisch","27",NA,"selflearn",NA,NA,NA,"immersion","Lernen durch Immersion","27","8","spielen.wav","spielen","spielen_spuelen","spielen","spuelen",1,"y/i","ns"
"e3x7","1176","pics/scaled/kiel_kuehl.jpg","NULL","image-keyboard-response",259,798055,"0.0-12.0-1.48","NULL","80","Nein","Spanisch","27",NA,"selflearn",NA,NA,NA,"immersion","Lernen durch Immersion","27","8","kuehl.wav","kuehl","kiel_kuehl","kiel","kuehl",1,"y/i","ns"
"e3x7","1223","pics/scaled/miete_mitte.jpg","NULL","image-keyboard-response",265,808249,"0.0-12.0-1.51","NULL","81","Nein","Spanisch","27",NA,"selflearn",NA,NA,NA,"immersion","Lernen durch Immersion","27","8","mitte.wav","mitte","miete_mitte","mitte","miete",1,"i/I","ns"
"e3x7","2935","pics/scaled/spulen_spuelen.jpg","NULL","image-keyboard-response",269,815640,"0.0-12.0-1.53","NULL","80","Nein","Spanisch","27",NA,"selflearn",NA,NA,NA,"immersion","Lernen durch Immersion","27","8","spulen.wav","spulen","spulen_spuelen","spulen","spuelen",0,"y/u","ns"
"e3x7","1261","pics/scaled/tuer_tour.jpg","NULL","image-keyboard-response",271,818145,"0.0-12.0-1.54","NULL","80","Nein","Spanisch","27",NA,"selflearn",NA,NA,NA,"immersion","Lernen durch Immersion","27","8","tuer.wav","tuer","tuer_tour","tour","tuer",1,"y/u","ns"
"e3x7","615","pics/scaled/spielen_spuelen.jpg","NULL","image-keyboard-response",275,822712,"0.0-12.0-1.56","NULL","80","Nein","Spanisch","27",NA,"selflearn",NA,NA,NA,"immersion","Lernen durch Immersion","27","8","spuelen2.wav","spuelen","spielen_spuelen","spielen","spuelen",1,"y/i","ns"
"e3x7","927","pics/scaled/spulen_spuelen.jpg","NULL","image-keyboard-response",277,825288,"0.0-12.0-1.57","NULL","81","Nein","Spanisch","27",NA,"selflearn",NA,NA,NA,"immersion","Lernen durch Immersion","27","8","spulen.wav","spulen","spulen_spuelen","spulen","spuelen",1,"y/u","ns"
"e3x7","1165","pics/scaled/bluten_blueten.jpg","NULL","image-keyboard-response",279,827800,"0.0-12.0-1.58","NULL","80","Nein","Spanisch","27",NA,"selflearn",NA,NA,NA,"immersion","Lernen durch Immersion","27","8","blueten.wav","blueten","bluten_blueten","blueten","bluten",0,"y/u","ns"
"e3x7","741","pics/scaled/spielen_spuelen.jpg","NULL","image-keyboard-response",281,830175,"0.0-12.0-1.59","NULL","80","Nein","Spanisch","27",NA,"selflearn",NA,NA,NA,"immersion","Lernen durch Immersion","27","8","spuelen2.wav","spuelen","spielen_spuelen","spielen","spuelen",1,"y/i","ns"
"e3x7","1332","pics/scaled/tier_tour.jpg","NULL","image-keyboard-response",285,834852,"0.0-12.0-1.61","NULL","80","Nein","Spanisch","27",NA,"selflearn",NA,NA,NA,"immersion","Lernen durch Immersion","27","8","tour.wav","tour","tier_tour","tier","tour",1,"i/u","ns"
"e3x7","1406","pics/scaled/schief_schiff.jpg","NULL","image-keyboard-response",287,837575,"0.0-12.0-1.62","NULL","80","Nein","Spanisch","27",NA,"selflearn",NA,NA,NA,"immersion","Lernen durch Immersion","27","8","schiff.wav","schiff","schief_schiff","schief","schiff",1,"i/I","ns"
"e3x7","853","pics/scaled/tier_tour.jpg","NULL","image-keyboard-response",295,849433,"0.0-12.0-1.66","NULL","81","Nein","Spanisch","27",NA,"selflearn",NA,NA,NA,"immersion","Lernen durch Immersion","27","8","tier.wav","tier","tier_tour","tier","tour",1,"i/u","ns"
"e3x7","749","pics/scaled/tier_tour.jpg","NULL","image-keyboard-response",297,851432,"0.0-12.0-1.67","NULL","80","Nein","Spanisch","27",NA,"selflearn",NA,NA,NA,"immersion","Lernen durch Immersion","27","8","tour.wav","tour","tier_tour","tier","tour",1,"i/u","ns"
"e3x7","1466","pics/scaled/miete_mitte.jpg","NULL","image-keyboard-response",303,858267,"0.0-12.0-1.70","NULL","80","Nein","Spanisch","27",NA,"selflearn",NA,NA,NA,"immersion","Lernen durch Immersion","27","8","miete.wav","miete","miete_mitte","mitte","miete",1,"i/I","ns"
"e3x7","1191","pics/scaled/still_stiel.jpg","NULL","image-keyboard-response",305,860987,"0.0-12.0-1.71","NULL","80","Nein","Spanisch","27",NA,"selflearn",NA,NA,NA,"immersion","Lernen durch Immersion","27","8","stiel.wav","stiel","still_stiel","still","stiel",1,"i/I","ns"
"e3x7","635","pics/scaled/tier_tour.jpg","NULL","image-keyboard-response",307,862869,"0.0-12.0-1.72","NULL","81","Nein","Spanisch","27",NA,"selflearn",NA,NA,NA,"immersion","Lernen durch Immersion","27","8","tier.wav","tier","tier_tour","tier","tour",1,"i/u","ns"
"e3x7","711","pics/scaled/stiel_stuhl.jpg","NULL","image-keyboard-response",311,867160,"0.0-12.0-1.74","NULL","81","Nein","Spanisch","27",NA,"selflearn",NA,NA,NA,"immersion","Lernen durch Immersion","27","8","stiel.wav","stiel","stiel_stuhl","stiel","stuhl",1,"i/u","ns"
"e3x7","144","pics/scaled/stiel_stuhl.jpg","NULL","image-keyboard-response",313,868833,"0.0-12.0-1.75","NULL","80","Nein","Spanisch","27",NA,"selflearn",NA,NA,NA,"immersion","Lernen durch Immersion","27","8","stuhl.wav","stuhl","stiel_stuhl","stiel","stuhl",1,"i/u","ns"
"e3x7","820","pics/scaled/spielen_spulen.jpg","NULL","image-keyboard-response",315,871402,"0.0-12.0-1.76","NULL","81","Nein","Spanisch","27",NA,"selflearn",NA,NA,NA,"immersion","Lernen durch Immersion","27","8","spulen.wav","spulen","spielen_spulen","spulen","spielen",1,"i/u","ns"
"e3x7","3924","pics/scaled/tuer_tour.jpg","NULL","image-keyboard-response",317,876573,"0.0-12.0-1.77","NULL","80","Nein","Spanisch","27",NA,"selflearn",NA,NA,NA,"immersion","Lernen durch Immersion","27","8","tour.wav","tour","tuer_tour","tour","tuer",0,"y/u","ns"
"e3x7","600","pics/scaled/kiel_kuehl.jpg","NULL","image-keyboard-response",319,878542,"0.0-12.0-1.78","NULL","81","Nein","Spanisch","27",NA,"selflearn",NA,NA,NA,"immersion","Lernen durch Immersion","27","8","kiel.wav","kiel","kiel_kuehl","kiel","kuehl",1,"y/i","ns"
"e3x7","917","pics/scaled/bluten_blueten.jpg","NULL","image-keyboard-response",323,883098,"0.0-12.0-1.80","NULL","81","Nein","Spanisch","27",NA,"selflearn",NA,NA,NA,"immersion","Lernen durch Immersion","27","8","blueten.wav","blueten","bluten_blueten","blueten","bluten",1,"y/u","ns"
"e3x7","708","pics/scaled/still_stiel.jpg","NULL","image-keyboard-response",325,885396,"0.0-12.0-1.81","NULL","80","Nein","Spanisch","27",NA,"selflearn",NA,NA,NA,"immersion","Lernen durch Immersion","27","8","stiel.wav","stiel","still_stiel","still","stiel",1,"i/I","ns"
"e3x7","950","pics/scaled/miete_mitte.jpg","NULL","image-keyboard-response",329,889749,"0.0-12.0-1.83","NULL","80","Nein","Spanisch","27",NA,"selflearn",NA,NA,NA,"immersion","Lernen durch Immersion","27","8","miete.wav","miete","miete_mitte","mitte","miete",1,"i/I","ns"
"e3x7","549","pics/scaled/biene_buehne.png","NULL","image-keyboard-response",333,893865,"0.0-12.0-1.85","NULL","80","Nein","Spanisch","27",NA,"selflearn",NA,NA,NA,"immersion","Lernen durch Immersion","27","8","buehne.wav","buehne","biene_buehne","biene","buehne",1,"y/i","ns"
"e3x7","2988","pics/scaled/schief_schiff.jpg","NULL","image-keyboard-response",335,898161,"0.0-12.0-1.86","NULL","80","Nein","Spanisch","27",NA,"selflearn",NA,NA,NA,"immersion","Lernen durch Immersion","27","8","schiff.wav","schiff","schief_schiff","schief","schiff",1,"i/I","ns"
"e3x7","1181","pics/scaled/schief_schiff.jpg","NULL","image-keyboard-response",341,905514,"0.0-12.0-1.89","NULL","81","Nein","Spanisch","27",NA,"selflearn",NA,NA,NA,"immersion","Lernen durch Immersion","27","8","schiff.wav","schiff","schief_schiff","schief","schiff",0,"i/I","ns"
"e3x7","364","pics/scaled/spielen_spulen.jpg","NULL","image-keyboard-response",345,909898,"0.0-12.0-1.91","NULL","81","Nein","Spanisch","27",NA,"selflearn",NA,NA,NA,"immersion","Lernen durch Immersion","27","8","spulen.wav","spulen","spielen_spulen","spulen","spielen",1,"i/u","ns"
"e3x7","700","pics/scaled/stiel_stuhl.jpg","NULL","image-keyboard-response",349,915389,"0.0-12.0-1.93","NULL","81","Nein","Spanisch","27",NA,"selflearn",NA,NA,NA,"immersion","Lernen durch Immersion","27","8","stiel.wav","stiel","stiel_stuhl","stiel","stuhl",1,"i/u","ns"
"e3x7","912","pics/scaled/kiel_kuehl.jpg","NULL","image-keyboard-response",355,921627,"0.0-12.0-1.96","NULL","81","Nein","Spanisch","27",NA,"selflearn",NA,NA,NA,"immersion","Lernen durch Immersion","27","8","kiel.wav","kiel","kiel_kuehl","kiel","kuehl",1,"y/i","ns"
"e3x7","274","pics/scaled/spielen_spulen.jpg","NULL","image-keyboard-response",359,925447,"0.0-12.0-1.98","NULL","81","Nein","Spanisch","27",NA,"selflearn",NA,NA,NA,"immersion","Lernen durch Immersion","27","8","spulen.wav","spulen","spielen_spulen","spulen","spielen",1,"i/u","ns"
"e3x7","507","pics/scaled/biene_buehne.png","NULL","image-keyboard-response",361,927352,"0.0-12.0-1.99","NULL","81","Nein","Spanisch","27",NA,"selflearn",NA,NA,NA,"immersion","Lernen durch Immersion","27","8","biene.wav","biene","biene_buehne","biene","buehne",1,"y/i","ns"
"e3x7","742","pics/scaled/bluten_blueten.jpg","NULL","image-keyboard-response",363,929433,"0.0-12.0-1.100","NULL","80","Nein","Spanisch","27",NA,"selflearn",NA,NA,NA,"immersion","Lernen durch Immersion","27","8","bluten.wav","bluten","bluten_blueten","blueten","bluten",1,"y/u","ns"
"e3x7","1176","pics/scaled/miete_mitte.jpg","NULL","image-keyboard-response",367,934116,"0.0-12.0-1.102","NULL","81","Nein","Spanisch","27",NA,"selflearn",NA,NA,NA,"immersion","Lernen durch Immersion","27","8","mitte.wav","mitte","miete_mitte","mitte","miete",1,"i/I","ns"
"e3x7","2617","pics/scaled/tuer_tour.jpg","NULL","image-keyboard-response",371,940575,"0.0-12.0-1.104","NULL","80","Nein","Spanisch","27",NA,"selflearn",NA,NA,NA,"immersion","Lernen durch Immersion","27","8","tuer.wav","tuer","tuer_tour","tour","tuer",1,"y/u","ns"
"e3x7","431","pics/scaled/spielen_spulen.jpg","NULL","image-keyboard-response",373,942659,"0.0-12.0-1.105","NULL","80","Nein","Spanisch","27",NA,"selflearn",NA,NA,NA,"immersion","Lernen durch Immersion","27","8","spielen2.wav","spielen","spielen_spulen","spulen","spielen",1,"i/u","ns"
"e3x7","837","pics/scaled/still_stiel.jpg","NULL","image-keyboard-response",381,951483,"0.0-12.0-1.109","NULL","80","Nein","Spanisch","27",NA,"selflearn",NA,NA,NA,"immersion","Lernen durch Immersion","27","8","still.wav","still","still_stiel","still","stiel",0,"i/I","ns"
"e3x7","785","pics/scaled/kiel_kuehl.jpg","NULL","image-keyboard-response",383,953638,"0.0-12.0-1.110","NULL","80","Nein","Spanisch","27",NA,"selflearn",NA,NA,NA,"immersion","Lernen durch Immersion","27","8","kuehl.wav","kuehl","kiel_kuehl","kiel","kuehl",1,"y/i","ns"
"e3x7","200","pics/scaled/spielen_spuelen.jpg","NULL","image-keyboard-response",385,955468,"0.0-12.0-1.111","NULL","81","Nein","Spanisch","27",NA,"selflearn",NA,NA,NA,"immersion","Lernen durch Immersion","27","8","spielen.wav","spielen","spielen_spuelen","spielen","spuelen",1,"y/i","ns"
"e3x7","506","pics/scaled/tuer_tour.jpg","NULL","image-keyboard-response",389,959104,"0.0-12.0-1.113","NULL","80","Nein","Spanisch","27",NA,"selflearn",NA,NA,NA,"immersion","Lernen durch Immersion","27","8","tuer.wav","tuer","tuer_tour","tour","tuer",1,"y/u","ns"
"e3x7","426","pics/scaled/tier_tour.jpg","NULL","image-keyboard-response",391,960779,"0.0-12.0-1.114","NULL","81","Nein","Spanisch","27",NA,"selflearn",NA,NA,NA,"immersion","Lernen durch Immersion","27","8","tier.wav","tier","tier_tour","tier","tour",1,"i/u","ns"
"e3x7","598","pics/scaled/biene_buehne.png","NULL","image-keyboard-response",393,962679,"0.0-12.0-1.115","NULL","80","Nein","Spanisch","27",NA,"selflearn",NA,NA,NA,"immersion","Lernen durch Immersion","27","8","buehne.wav","buehne","biene_buehne","biene","buehne",1,"y/i","ns"
"e3x7","546","pics/scaled/biene_buehne.png","NULL","image-keyboard-response",395,964544,"0.0-12.0-1.116","NULL","81","Nein","Spanisch","27",NA,"selflearn",NA,NA,NA,"immersion","Lernen durch Immersion","27","8","biene.wav","biene","biene_buehne","biene","buehne",1,"y/i","ns"
"e3x7","306","pics/scaled/biene_buehne.png","NULL","image-keyboard-response",397,966162,"0.0-12.0-1.117","NULL","81","Nein","Spanisch","27",NA,"selflearn",NA,NA,NA,"immersion","Lernen durch Immersion","27","8","biene.wav","biene","biene_buehne","biene","buehne",1,"y/i","ns"
"e3x7","1152","pics/scaled/schief_schiff.jpg","NULL","image-keyboard-response",399,968832,"0.0-12.0-1.118","NULL","80","Nein","Spanisch","27",NA,"selflearn",NA,NA,NA,"immersion","Lernen durch Immersion","27","8","schief.wav","schief","schief_schiff","schief","schiff",0,"i/I","ns"
"fnoe","1766.6999999993","pics/scaled/schief_schiff.jpg","NULL","image-keyboard-response",163,620518,"0.0-12.0-1.0","NULL","80","Nein","Spanisch, Englisch","24","classeshome","selflearn","lgeschool",NA,"classesabroad",NA,"Deutschkurs in einem deutschsprachigen Land","27","Ich wohne seit 2 Monaten in Deutschland","schief.wav","schief","schief_schiff","schief","schiff",0,"i/I","ns"
"fnoe","1564.1999999993","pics/scaled/tier_tour.jpg","NULL","image-keyboard-response",165,623323,"0.0-12.0-1.1","NULL","80","Nein","Spanisch, Englisch","24","classeshome","selflearn","lgeschool",NA,"classesabroad",NA,"Deutschkurs in einem deutschsprachigen Land","27","Ich wohne seit 2 Monaten in Deutschland","tour.wav","tour","tier_tour","tier","tour",1,"i/u","ns"
"fnoe","918.09999999776","pics/scaled/biene_buehne.png","NULL","image-keyboard-response",169,627733,"0.0-12.0-1.3","NULL","81","Nein","Spanisch, Englisch","24","classeshome","selflearn","lgeschool",NA,"classesabroad",NA,"Deutschkurs in einem deutschsprachigen Land","27","Ich wohne seit 2 Monaten in Deutschland","biene.wav","biene","biene_buehne","biene","buehne",1,"y/i","ns"
"fnoe","2803.4000000022","pics/scaled/spielen_spuelen.jpg","NULL","image-keyboard-response",173,634083,"0.0-12.0-1.5","NULL","80","Nein","Spanisch, Englisch","24","classeshome","selflearn","lgeschool",NA,"classesabroad",NA,"Deutschkurs in einem deutschsprachigen Land","27","Ich wohne seit 2 Monaten in Deutschland","spuelen2.wav","spuelen","spielen_spuelen","spielen","spuelen",1,"y/i","ns"
"fnoe","916.30000000075","pics/scaled/tuer_tour.jpg","NULL","image-keyboard-response",179,642510,"0.0-12.0-1.8","NULL","81","Nein","Spanisch, Englisch","24","classeshome","selflearn","lgeschool",NA,"classesabroad",NA,"Deutschkurs in einem deutschsprachigen Land","27","Ich wohne seit 2 Monaten in Deutschland","tour.wav","tour","tuer_tour","tour","tuer",1,"y/u","ns"
"fnoe","950.80000000075","pics/scaled/schief_schiff.jpg","NULL","image-keyboard-response",181,644763,"0.0-12.0-1.9","NULL","80","Nein","Spanisch, Englisch","24","classeshome","selflearn","lgeschool",NA,"classesabroad",NA,"Deutschkurs in einem deutschsprachigen Land","27","Ich wohne seit 2 Monaten in Deutschland","schiff.wav","schiff","schief_schiff","schief","schiff",1,"i/I","ns"
"fnoe","863","pics/scaled/schief_schiff.jpg","NULL","image-keyboard-response",185,649187,"0.0-12.0-1.11","NULL","80","Nein","Spanisch, Englisch","24","classeshome","selflearn","lgeschool",NA,"classesabroad",NA,"Deutschkurs in einem deutschsprachigen Land","27","Ich wohne seit 2 Monaten in Deutschland","schiff.wav","schiff","schief_schiff","schief","schiff",1,"i/I","ns"
"fnoe","4233.3000000007","pics/scaled/kiel_kuehl.jpg","NULL","image-keyboard-response",189,656899,"0.0-12.0-1.13","NULL","80","Nein","Spanisch, Englisch","24","classeshome","selflearn","lgeschool",NA,"classesabroad",NA,"Deutschkurs in einem deutschsprachigen Land","27","Ich wohne seit 2 Monaten in Deutschland","kuehl.wav","kuehl","kiel_kuehl","kiel","kuehl",1,"y/i","ns"
"fnoe","1287.4000000022","pics/scaled/biene_buehne.png","NULL","image-keyboard-response",193,663339,"0.0-12.0-1.15","NULL","80","Nein","Spanisch, Englisch","24","classeshome","selflearn","lgeschool",NA,"classesabroad",NA,"Deutschkurs in einem deutschsprachigen Land","27","Ich wohne seit 2 Monaten in Deutschland","buehne.wav","buehne","biene_buehne","biene","buehne",1,"y/i","ns"
"fnoe","562.89999999851","pics/scaled/kiel_kuehl.jpg","NULL","image-keyboard-response",197,670493,"0.0-12.0-1.17","NULL","81","Nein","Spanisch, Englisch","24","classeshome","selflearn","lgeschool",NA,"classesabroad",NA,"Deutschkurs in einem deutschsprachigen Land","27","Ich wohne seit 2 Monaten in Deutschland","kiel.wav","kiel","kiel_kuehl","kiel","kuehl",1,"y/i","ns"
"fnoe","870.60000000149","pics/scaled/schief_schiff.jpg","NULL","image-keyboard-response",199,672826,"0.0-12.0-1.18","NULL","80","Nein","Spanisch, Englisch","24","classeshome","selflearn","lgeschool",NA,"classesabroad",NA,"Deutschkurs in einem deutschsprachigen Land","27","Ich wohne seit 2 Monaten in Deutschland","schief.wav","schief","schief_schiff","schief","schiff",0,"i/I","ns"
"fnoe","2653.1999999993","pics/scaled/still_stiel.jpg","NULL","image-keyboard-response",201,676907,"0.0-12.0-1.19","NULL","81","Nein","Spanisch, Englisch","24","classeshome","selflearn","lgeschool",NA,"classesabroad",NA,"Deutschkurs in einem deutschsprachigen Land","27","Ich wohne seit 2 Monaten in Deutschland","still.wav","still","still_stiel","still","stiel",1,"i/I","ns"
"fnoe","971.80000000075","pics/scaled/bluten_blueten.jpg","NULL","image-keyboard-response",203,679210,"0.0-12.0-1.20","NULL","80","Nein","Spanisch, Englisch","24","classeshome","selflearn","lgeschool",NA,"classesabroad",NA,"Deutschkurs in einem deutschsprachigen Land","27","Ich wohne seit 2 Monaten in Deutschland","bluten.wav","bluten","bluten_blueten","blueten","bluten",1,"y/u","ns"
"fnoe","646.69999999925","pics/scaled/bluten_blueten.jpg","NULL","image-keyboard-response",205,681189,"0.0-12.0-1.21","NULL","80","Nein","Spanisch, Englisch","24","classeshome","selflearn","lgeschool",NA,"classesabroad",NA,"Deutschkurs in einem deutschsprachigen Land","27","Ich wohne seit 2 Monaten in Deutschland","bluten.wav","bluten","bluten_blueten","blueten","bluten",1,"y/u","ns"
"fnoe","1777.3999999985","pics/scaled/tier_tour.jpg","NULL","image-keyboard-response",207,684202,"0.0-12.0-1.22","NULL","81","Nein","Spanisch, Englisch","24","classeshome","selflearn","lgeschool",NA,"classesabroad",NA,"Deutschkurs in einem deutschsprachigen Land","27","Ich wohne seit 2 Monaten in Deutschland","tier.wav","tier","tier_tour","tier","tour",1,"i/u","ns"
"fnoe","2175","pics/scaled/miete_mitte.jpg","NULL","image-keyboard-response",209,687773,"0.0-12.0-1.23","NULL","81","Nein","Spanisch, Englisch","24","classeshome","selflearn","lgeschool",NA,"classesabroad",NA,"Deutschkurs in einem deutschsprachigen Land","27","Ich wohne seit 2 Monaten in Deutschland","miete.wav","miete","miete_mitte","mitte","miete",0,"i/I","ns"
"fnoe","1031.1999999993","pics/scaled/biene_buehne.png","NULL","image-keyboard-response",211,690106,"0.0-12.0-1.24","NULL","80","Nein","Spanisch, Englisch","24","classeshome","selflearn","lgeschool",NA,"classesabroad",NA,"Deutschkurs in einem deutschsprachigen Land","27","Ich wohne seit 2 Monaten in Deutschland","buehne.wav","buehne","biene_buehne","biene","buehne",1,"y/i","ns"
"fnoe","647.29999999702","pics/scaled/spulen_spuelen.jpg","NULL","image-keyboard-response",213,692373,"0.0-12.0-1.25","NULL","80","Nein","Spanisch, Englisch","24","classeshome","selflearn","lgeschool",NA,"classesabroad",NA,"Deutschkurs in einem deutschsprachigen Land","27","Ich wohne seit 2 Monaten in Deutschland","spuelen2.wav","spuelen","spulen_spuelen","spulen","spuelen",1,"y/u","ns"
"fnoe","2693.0999999978","pics/scaled/stiel_stuhl.jpg","NULL","image-keyboard-response",215,696578,"0.0-12.0-1.26","NULL","81","Nein","Spanisch, Englisch","24","classeshome","selflearn","lgeschool",NA,"classesabroad",NA,"Deutschkurs in einem deutschsprachigen Land","27","Ich wohne seit 2 Monaten in Deutschland","stiel.wav","stiel","stiel_stuhl","stiel","stuhl",1,"i/u","ns"
"fnoe","631.30000000075","pics/scaled/stiel_stuhl.jpg","NULL","image-keyboard-response",225,711882,"0.0-12.0-1.31","NULL","80","Nein","Spanisch, Englisch","24","classeshome","selflearn","lgeschool",NA,"classesabroad",NA,"Deutschkurs in einem deutschsprachigen Land","27","Ich wohne seit 2 Monaten in Deutschland","stuhl.wav","stuhl","stiel_stuhl","stiel","stuhl",1,"i/u","ns"
"fnoe","902.30000000075","pics/scaled/spielen_spulen.jpg","NULL","image-keyboard-response",227,714420,"0.0-12.0-1.32","NULL","80","Nein","Spanisch, Englisch","24","classeshome","selflearn","lgeschool",NA,"classesabroad",NA,"Deutschkurs in einem deutschsprachigen Land","27","Ich wohne seit 2 Monaten in Deutschland","spielen2.wav","spielen","spielen_spulen","spulen","spielen",1,"i/u","ns"
"fnoe","1001.3999999985","pics/scaled/schief_schiff.jpg","NULL","image-keyboard-response",231,720204,"0.0-12.0-1.34","NULL","80","Nein","Spanisch, Englisch","24","classeshome","selflearn","lgeschool",NA,"classesabroad",NA,"Deutschkurs in einem deutschsprachigen Land","27","Ich wohne seit 2 Monaten in Deutschland","schief.wav","schief","schief_schiff","schief","schiff",0,"i/I","ns"
"fnoe","989","pics/scaled/bluten_blueten.jpg","NULL","image-keyboard-response",233,722521,"0.0-12.0-1.35","NULL","80","Nein","Spanisch, Englisch","24","classeshome","selflearn","lgeschool",NA,"classesabroad",NA,"Deutschkurs in einem deutschsprachigen Land","27","Ich wohne seit 2 Monaten in Deutschland","blueten.wav","blueten","bluten_blueten","blueten","bluten",0,"y/u","ns"
"fnoe","NULL","pics/scaled/tier_tour.jpg","NULL","image-keyboard-response",235,728817,"0.0-12.0-1.36","NULL","NULL","Nein","Spanisch, Englisch","24","classeshome","selflearn","lgeschool",NA,"classesabroad",NA,"Deutschkurs in einem deutschsprachigen Land","27","Ich wohne seit 2 Monaten in Deutschland","tier.wav","tier","tier_tour","tier","tour",0,"i/u","ns"
"fnoe","3334.3000000007","pics/scaled/still_stiel.jpg","NULL","image-keyboard-response",237,733666,"0.0-12.0-1.37","NULL","80","Nein","Spanisch, Englisch","24","classeshome","selflearn","lgeschool",NA,"classesabroad",NA,"Deutschkurs in einem deutschsprachigen Land","27","Ich wohne seit 2 Monaten in Deutschland","stiel.wav","stiel","still_stiel","still","stiel",1,"i/I","ns"
"fnoe","3670.1999999993","pics/scaled/still_stiel.jpg","NULL","image-keyboard-response",241,741362,"0.0-12.0-1.39","NULL","81","Nein","Spanisch, Englisch","24","classeshome","selflearn","lgeschool",NA,"classesabroad",NA,"Deutschkurs in einem deutschsprachigen Land","27","Ich wohne seit 2 Monaten in Deutschland","still.wav","still","still_stiel","still","stiel",1,"i/I","ns"
"fnoe","3163.6999999993","pics/scaled/tuer_tour.jpg","NULL","image-keyboard-response",243,745763,"0.0-12.0-1.40","NULL","81","Nein","Spanisch, Englisch","24","classeshome","selflearn","lgeschool",NA,"classesabroad",NA,"Deutschkurs in einem deutschsprachigen Land","27","Ich wohne seit 2 Monaten in Deutschland","tuer.wav","tuer","tuer_tour","tour","tuer",0,"y/u","ns"
"fnoe","1209.1000000015","pics/scaled/spielen_spuelen.jpg","NULL","image-keyboard-response",247,753712,"0.0-12.0-1.42","NULL","80","Nein","Spanisch, Englisch","24","classeshome","selflearn","lgeschool",NA,"classesabroad",NA,"Deutschkurs in einem deutschsprachigen Land","27","Ich wohne seit 2 Monaten in Deutschland","spuelen2.wav","spuelen","spielen_spuelen","spielen","spuelen",1,"y/i","ns"
"fnoe","1587.4000000022","pics/scaled/stiel_stuhl.jpg","NULL","image-keyboard-response",253,766026,"0.0-12.0-1.45","NULL","80","Nein","Spanisch, Englisch","24","classeshome","selflearn","lgeschool",NA,"classesabroad",NA,"Deutschkurs in einem deutschsprachigen Land","27","Ich wohne seit 2 Monaten in Deutschland","stuhl.wav","stuhl","stiel_stuhl","stiel","stuhl",1,"i/u","ns"
"fnoe","1803.8999999985","pics/scaled/spulen_spuelen.jpg","NULL","image-keyboard-response",255,769447,"0.0-12.0-1.46","NULL","80","Nein","Spanisch, Englisch","24","classeshome","selflearn","lgeschool",NA,"classesabroad",NA,"Deutschkurs in einem deutschsprachigen Land","27","Ich wohne seit 2 Monaten in Deutschland","spuelen2.wav","spuelen","spulen_spuelen","spulen","spuelen",1,"y/u","ns"
"fnoe","4004.0999999978","pics/scaled/still_stiel.jpg","NULL","image-keyboard-response",257,775512,"0.0-12.0-1.47","NULL","81","Nein","Spanisch, Englisch","24","classeshome","selflearn","lgeschool",NA,"classesabroad",NA,"Deutschkurs in einem deutschsprachigen Land","27","Ich wohne seit 2 Monaten in Deutschland","stiel.wav","stiel","still_stiel","still","stiel",0,"i/I","ns"
"fnoe","NULL","pics/scaled/spulen_spuelen.jpg","NULL","image-keyboard-response",259,782152,"0.0-12.0-1.48","NULL","NULL","Nein","Spanisch, Englisch","24","classeshome","selflearn","lgeschool",NA,"classesabroad",NA,"Deutschkurs in einem deutschsprachigen Land","27","Ich wohne seit 2 Monaten in Deutschland","spulen.wav","spulen","spulen_spuelen","spulen","spuelen",0,"y/u","ns"
"fnoe","2376.3000000007","pics/scaled/tier_tour.jpg","NULL","image-keyboard-response",261,785785,"0.0-12.0-1.49","NULL","80","Nein","Spanisch, Englisch","24","classeshome","selflearn","lgeschool",NA,"classesabroad",NA,"Deutschkurs in einem deutschsprachigen Land","27","Ich wohne seit 2 Monaten in Deutschland","tour.wav","tour","tier_tour","tier","tour",1,"i/u","ns"
"fnoe","2227.6999999993","pics/scaled/kiel_kuehl.jpg","NULL","image-keyboard-response",263,789369,"0.0-12.0-1.50","NULL","80","Nein","Spanisch, Englisch","24","classeshome","selflearn","lgeschool",NA,"classesabroad",NA,"Deutschkurs in einem deutschsprachigen Land","27","Ich wohne seit 2 Monaten in Deutschland","kuehl.wav","kuehl","kiel_kuehl","kiel","kuehl",1,"y/i","ns"
"fnoe","1065.3999999985","pics/scaled/tier_tour.jpg","NULL","image-keyboard-response",267,795455,"0.0-12.0-1.52","NULL","80","Nein","Spanisch, Englisch","24","classeshome","selflearn","lgeschool",NA,"classesabroad",NA,"Deutschkurs in einem deutschsprachigen Land","27","Ich wohne seit 2 Monaten in Deutschland","tour.wav","tour","tier_tour","tier","tour",1,"i/u","ns"
"fnoe","2312.6999999993","pics/scaled/miete_mitte.jpg","NULL","image-keyboard-response",273,807439,"0.0-12.0-1.55","NULL","81","Nein","Spanisch, Englisch","24","classeshome","selflearn","lgeschool",NA,"classesabroad",NA,"Deutschkurs in einem deutschsprachigen Land","27","Ich wohne seit 2 Monaten in Deutschland","miete.wav","miete","miete_mitte","mitte","miete",0,"i/I","ns"
"fnoe","3599.3000000007","pics/scaled/tuer_tour.jpg","NULL","image-keyboard-response",275,812271,"0.0-12.0-1.56","NULL","80","Nein","Spanisch, Englisch","24","classeshome","selflearn","lgeschool",NA,"classesabroad",NA,"Deutschkurs in einem deutschsprachigen Land","27","Ich wohne seit 2 Monaten in Deutschland","tour.wav","tour","tuer_tour","tour","tuer",0,"y/u","ns"
"fnoe","966","pics/scaled/spielen_spuelen.jpg","NULL","image-keyboard-response",277,814854,"0.0-12.0-1.57","NULL","81","Nein","Spanisch, Englisch","24","classeshome","selflearn","lgeschool",NA,"classesabroad",NA,"Deutschkurs in einem deutschsprachigen Land","27","Ich wohne seit 2 Monaten in Deutschland","spielen.wav","spielen","spielen_spuelen","spielen","spuelen",1,"y/i","ns"
"fnoe","1757.5","pics/scaled/spielen_spulen.jpg","NULL","image-keyboard-response",279,818248,"0.0-12.0-1.58","NULL","81","Nein","Spanisch, Englisch","24","classeshome","selflearn","lgeschool",NA,"classesabroad",NA,"Deutschkurs in einem deutschsprachigen Land","27","Ich wohne seit 2 Monaten in Deutschland","spulen.wav","spulen","spielen_spulen","spulen","spielen",1,"i/u","ns"
"fnoe","614.59999999776","pics/scaled/spielen_spuelen.jpg","NULL","image-keyboard-response",281,820486,"0.0-12.0-1.59","NULL","80","Nein","Spanisch, Englisch","24","classeshome","selflearn","lgeschool",NA,"classesabroad",NA,"Deutschkurs in einem deutschsprachigen Land","27","Ich wohne seit 2 Monaten in Deutschland","spuelen2.wav","spuelen","spielen_spuelen","spielen","spuelen",1,"y/i","ns"
"fnoe","724.60000000149","pics/scaled/spielen_spulen.jpg","NULL","image-keyboard-response",283,822847,"0.0-12.0-1.60","NULL","81","Nein","Spanisch, Englisch","24","classeshome","selflearn","lgeschool",NA,"classesabroad",NA,"Deutschkurs in einem deutschsprachigen Land","27","Ich wohne seit 2 Monaten in Deutschland","spulen.wav","spulen","spielen_spulen","spulen","spielen",1,"i/u","ns"
"fnoe","2979.5","pics/scaled/bluten_blueten.jpg","NULL","image-keyboard-response",285,827160,"0.0-12.0-1.61","NULL","81","Nein","Spanisch, Englisch","24","classeshome","selflearn","lgeschool",NA,"classesabroad",NA,"Deutschkurs in einem deutschsprachigen Land","27","Ich wohne seit 2 Monaten in Deutschland","blueten.wav","blueten","bluten_blueten","blueten","bluten",1,"y/u","ns"
"fnoe","1507.3999999985","pics/scaled/bluten_blueten.jpg","NULL","image-keyboard-response",287,829998,"0.0-12.0-1.62","NULL","80","Nein","Spanisch, Englisch","24","classeshome","selflearn","lgeschool",NA,"classesabroad",NA,"Deutschkurs in einem deutschsprachigen Land","27","Ich wohne seit 2 Monaten in Deutschland","bluten.wav","bluten","bluten_blueten","blueten","bluten",1,"y/u","ns"
"fnoe","694.90000000224","pics/scaled/spielen_spulen.jpg","NULL","image-keyboard-response",291,834710,"0.0-12.0-1.64","NULL","80","Nein","Spanisch, Englisch","24","classeshome","selflearn","lgeschool",NA,"classesabroad",NA,"Deutschkurs in einem deutschsprachigen Land","27","Ich wohne seit 2 Monaten in Deutschland","spielen2.wav","spielen","spielen_spulen","spulen","spielen",1,"i/u","ns"
"fnoe","643.5","pics/scaled/spielen_spulen.jpg","NULL","image-keyboard-response",293,836989,"0.0-12.0-1.65","NULL","81","Nein","Spanisch, Englisch","24","classeshome","selflearn","lgeschool",NA,"classesabroad",NA,"Deutschkurs in einem deutschsprachigen Land","27","Ich wohne seit 2 Monaten in Deutschland","spulen.wav","spulen","spielen_spulen","spulen","spielen",1,"i/u","ns"
"fnoe","851.89999999851","pics/scaled/biene_buehne.png","NULL","image-keyboard-response",301,846270,"0.0-12.0-1.69","NULL","81","Nein","Spanisch, Englisch","24","classeshome","selflearn","lgeschool",NA,"classesabroad",NA,"Deutschkurs in einem deutschsprachigen Land","27","Ich wohne seit 2 Monaten in Deutschland","biene.wav","biene","biene_buehne","biene","buehne",1,"y/i","ns"
"fnoe","1635.8000000007","pics/scaled/spulen_spuelen.jpg","NULL","image-keyboard-response",307,854717,"0.0-12.0-1.72","NULL","81","Nein","Spanisch, Englisch","24","classeshome","selflearn","lgeschool",NA,"classesabroad",NA,"Deutschkurs in einem deutschsprachigen Land","27","Ich wohne seit 2 Monaten in Deutschland","spulen.wav","spulen","spulen_spuelen","spulen","spuelen",1,"y/u","ns"
"fnoe","2026","pics/scaled/biene_buehne.png","NULL","image-keyboard-response",309,858046,"0.0-12.0-1.73","NULL","80","Nein","Spanisch, Englisch","24","classeshome","selflearn","lgeschool",NA,"classesabroad",NA,"Deutschkurs in einem deutschsprachigen Land","27","Ich wohne seit 2 Monaten in Deutschland","buehne.wav","buehne","biene_buehne","biene","buehne",1,"y/i","ns"
"fnoe","601.10000000149","pics/scaled/spulen_spuelen.jpg","NULL","image-keyboard-response",315,865277,"0.0-12.0-1.76","NULL","80","Nein","Spanisch, Englisch","24","classeshome","selflearn","lgeschool",NA,"classesabroad",NA,"Deutschkurs in einem deutschsprachigen Land","27","Ich wohne seit 2 Monaten in Deutschland","spulen.wav","spulen","spulen_spuelen","spulen","spuelen",0,"y/u","ns"
"fnoe","611.70000000298","pics/scaled/spielen_spuelen.jpg","NULL","image-keyboard-response",325,877335,"0.0-12.0-1.81","NULL","81","Nein","Spanisch, Englisch","24","classeshome","selflearn","lgeschool",NA,"classesabroad",NA,"Deutschkurs in einem deutschsprachigen Land","27","Ich wohne seit 2 Monaten in Deutschland","spielen.wav","spielen","spielen_spuelen","spielen","spuelen",1,"y/i","ns"
"fnoe","1049.6000000015","pics/scaled/stiel_stuhl.jpg","NULL","image-keyboard-response",327,879901,"0.0-12.0-1.82","NULL","81","Nein","Spanisch, Englisch","24","classeshome","selflearn","lgeschool",NA,"classesabroad",NA,"Deutschkurs in einem deutschsprachigen Land","27","Ich wohne seit 2 Monaten in Deutschland","stiel.wav","stiel","stiel_stuhl","stiel","stuhl",1,"i/u","ns"
